"success","timeout","failed_images","failed_audio","failed_video","trial_type","trial_index","time_elapsed","internal_node_id","rt","stimulus","response","view_history","responses","num_errors","quiz","phase","state_2_ids","state_2_key","state_2_choice","state_2_rt","outcome","screen_resolution","minimum_resolution","state_1_ids","state_1_key","state_1_choice","state_1_rt","transition","state","rocket_colors","planet_colors","trial","missing","drifts","drift_ix","browser_interactions","interactions"
"true","false","[]","[]","[]","preload","0","204","0.0-0.0","","","","","","","","","","","","","","","","","","","","","","","","","","","","",""
"true","","","","","fullscreen","1","2142070","0.0-1.0","","","","","","","","","","","","","","","","","","","","","","","","","","","","",""
"","","","","","html-keyboard-response","2","2210913","0.0-2.0","68839","<p>You are starting a demo of the <b>two-step task.</b></p><p>To see the instructions, press the ""1"" key. To skip them, press the ""2"" key.</p>","1","","","","","","","","","","","","","","","","","","","","","","","","","",""
"","","","","","two-step-instructions","3","2294313","0.0-3.0-0.0-1.0","83396","","","[{""page_index"":0,""viewing_time"":19643},{""page_index"":1,""viewing_time"":1463},{""page_index"":2,""viewing_time"":593},{""page_index"":3,""viewing_time"":708},{""page_index"":4,""viewing_time"":13517},{""page_index"":5,""viewing_time"":3431},{""page_index"":6,""viewing_time"":2216},{""page_index"":7,""viewing_time"":6577},{""page_index"":8,""viewing_time"":8360},{""page_index"":9,""viewing_time"":14584},{""page_index"":10,""viewing_time"":12304}]","","","","","","","","","","","","","","","","","","","","","","","","",""
"","","","","","two-step-comprehension","4","2306826","0.0-3.0-0.0-2.0","12506","","","","[""left/right arrow keys"",""True"",""True""]","0","1","","","","","","","","","","","","","","","","","","","","","",""
"","","","","","two-step-instructions","5","2314489","0.0-3.0-1.0-0.0-0.0","7657","","","[{""page_index"":0,""viewing_time"":7657}]","","","","instructions_1b","","","","","","","","","","","","","","","","","","","","",""
"","","","","","alien-practice","6","2319674","0.0-3.0-1.0-1.0-0.0","","","","","","","","","[0,1]","1","1","2979","1","[1280,720]","1","","","","","","","","","","","","","",""
"","","","","","alien-practice","7","2323459","0.0-3.0-1.0-2.0-0.0","","","","","","","","","[0,1]","0","0","1580","1","[1280,720]","1","","","","","","","","","","","","","",""
"","","","","","alien-practice","8","2327955","0.0-3.0-1.0-3.0-0.0","","","","","","","","","[0,1]","0","0","2293","0","[1280,720]","1","","","","","","","","","","","","","",""
"","","","","","alien-practice","9","2330642","0.0-3.0-1.0-4.0-0.0","","","","","","","","","[0,1]","1","1","483","1","[1280,720]","1","","","","","","","","","","","","","",""
"","","","","","alien-practice","10","2333530","0.0-3.0-1.0-5.0-0.0","","","","","","","","","[0,1]","1","1","683","1","[1280,720]","1","","","","","","","","","","","","","",""
"","","","","","alien-practice","11","2336314","0.0-3.0-1.0-6.0-0.0","","","","","","","","","[0,1]","1","1","579","1","[1280,720]","1","","","","","","","","","","","","","",""
"","","","","","two-step-instructions","12","2382130","0.0-3.0-2.0-1.0","45814","","","[{""page_index"":0,""viewing_time"":6710},{""page_index"":1,""viewing_time"":2894},{""page_index"":2,""viewing_time"":10354},{""page_index"":3,""viewing_time"":11647},{""page_index"":4,""viewing_time"":10104},{""page_index"":5,""viewing_time"":4104}]","","","","","","","","","","","","","","","","","","","","","","","","",""
"","","","","","two-step-comprehension","13","2397501","0.0-3.0-2.0-2.0","15364","","","","[""left/right arrow keys"",""False"",""True""]","0","2","","","","","","","","","","","","","","","","","","","","","",""
"","","","","","two-step-instructions","14","2444339","0.0-3.0-3.0-0.0","46833","","","[{""page_index"":0,""viewing_time"":25288},{""page_index"":1,""viewing_time"":9184},{""page_index"":2,""viewing_time"":12361}]","","","","","","","","","","","","","","","","","","","","","","","","",""
"","","","","","two-step-trial","15","2455507","0.0-3.0-3.0-1.0-0.0","","","","","","","","","[0,1]","0","0","4558","1","[1280,720]","1","[0,1]","1","1","4604","0","0","[""#a75248"",""#486ea7""]","[""#706081"",""#5b7c65""]","0","false","","","",""
"","","","","","two-step-trial","16","2461421","0.0-3.0-3.0-1.0-0.1","","","","","","","","","[2,3]","0","2","1327","0","[1280,720]","1","[0,1]","1","1","2580","1","1","[""#a75248"",""#486ea7""]","[""#706081"",""#5b7c65""]","0","false","","","",""
"","","","","","two-step-trial","17","2465700","0.0-3.0-3.0-1.0-0.2","","","","","","","","","[2,3]","1","3","1055","1","[1280,720]","1","[0,1]","1","1","1220","1","1","[""#a75248"",""#486ea7""]","[""#706081"",""#5b7c65""]","0","false","","","",""
"","","","","","two-step-trial","18","2469851","0.0-3.0-3.0-1.0-0.3","","","","","","","","","[2,3]","0","2","1127","0","[1280,720]","1","[0,1]","1","1","1021","1","1","[""#a75248"",""#486ea7""]","[""#706081"",""#5b7c65""]","0","false","","","",""
"","","","","","two-step-trial","19","2473244","0.0-3.0-3.0-1.0-0.4","","","","","","","","","[2,3]","1","3","512","1","[1280,720]","1","[0,1]","1","1","877","1","1","[""#a75248"",""#486ea7""]","[""#706081"",""#5b7c65""]","0","false","","","",""
"","","","","","two-step-trial","20","2476397","0.0-3.0-3.0-1.0-0.5","","","","","","","","","[2,3]","1","3","559","1","[1280,720]","1","[0,1]","1","1","590","1","1","[""#a75248"",""#486ea7""]","[""#706081"",""#5b7c65""]","0","false","","","",""
"","","","","","two-step-trial","21","2479685","0.0-3.0-3.0-1.0-0.6","","","","","","","","","[2,3]","1","3","511","1","[1280,720]","1","[0,1]","1","1","772","1","1","[""#a75248"",""#486ea7""]","[""#706081"",""#5b7c65""]","0","false","","","",""
"","","","","","two-step-trial","22","2482876","0.0-3.0-3.0-1.0-0.7","","","","","","","","","[2,3]","1","3","525","1","[1280,720]","1","[0,1]","1","1","662","1","1","[""#a75248"",""#486ea7""]","[""#706081"",""#5b7c65""]","0","false","","","",""
"","","","","","two-step-trial","23","2485900","0.0-3.0-3.0-1.0-0.8","","","","","","","","","[0,1]","1","1","430","1","[1280,720]","1","[0,1]","1","1","588","0","0","[""#a75248"",""#486ea7""]","[""#706081"",""#5b7c65""]","0","false","","","",""
"","","","","","two-step-trial","24","2489315","0.0-3.0-3.0-1.0-0.9","","","","","","","","","[0,1]","1","1","534","0","[1280,720]","1","[0,1]","1","1","876","0","0","[""#a75248"",""#486ea7""]","[""#706081"",""#5b7c65""]","0","false","","","",""
"","","","","","two-step-instructions","25","2568349","0.0-3.0-4.0-1.0","79030","","","[{""page_index"":0,""viewing_time"":4524},{""page_index"":1,""viewing_time"":4945},{""page_index"":2,""viewing_time"":2343},{""page_index"":3,""viewing_time"":3560},{""page_index"":4,""viewing_time"":25545},{""page_index"":5,""viewing_time"":29336},{""page_index"":6,""viewing_time"":8777}]","","","","","","","","","","","","","","","","","","","","","","","","",""
"","","","","","two-step-comprehension","26","2588215","0.0-3.0-4.0-2.0","19861","","","","[""True"",""True"",""True""]","1","3","","","","","","","","","","","","","","","","","","","","","",""
"","","","","","two-step-instructions","27","2590996","0.0-3.0-4.1-0.1-0.1","2775","","","[{""page_index"":0,""viewing_time"":2775}]","","","","","","","","","","","","","","","","","","","","","","","","",""
"","","","","","two-step-instructions","28","2631086","0.0-3.0-4.1-1.1","40087","","","[{""page_index"":0,""viewing_time"":8164},{""page_index"":1,""viewing_time"":3105},{""page_index"":2,""viewing_time"":3312},{""page_index"":3,""viewing_time"":8768},{""page_index"":4,""viewing_time"":10752},{""page_index"":5,""viewing_time"":5985}]","","","","","","","","","","","","","","","","","","","","","","","","",""
"","","","","","two-step-comprehension","29","2653911","0.0-3.0-4.1-2.1","22819","","","","[""True"",""False"",""True""]","0","3","","","","","","","","","","","","","","","","","","","","","",""
"","","","","","two-step-instructions","30","2667205","0.0-4.0","13288","","","[{""page_index"":0,""viewing_time"":4023},{""page_index"":1,""viewing_time"":3849},{""page_index"":2,""viewing_time"":5416}]","","","","","","","","","","","","","","","","","","","","","","","","",""
"","","","","","two-step-trial","31","2678198","0.0-5.0-0.0","","","","","","","","","[2,3]","0","2","3670","1","[1280,720]","1","[0,1]","1","1","5318","1","1","[""#955db9"",""#48a782""]","[""#7f5d5d"",""#5f6f81""]","1","false","[0.305,0.438,0.598,0.713]","3","0",""
"","","","","","two-step-trial","32","2682111","0.0-6.0-0.0","","","","","","","","","[2,3]","0","2","637","1","[1280,720]","1","[0,1]","1","1","1270","1","1","[""#955db9"",""#48a782""]","[""#7f5d5d"",""#5f6f81""]","2","false","[0.326,0.396,0.598,0.702]","3","0",""
"","","","","","two-step-trial","33","2684928","0.0-7.0-0.0","","","","","","","","","[2,3]","0","2","400","0","[1280,720]","1","[0,1]","1","1","413","1","1","[""#955db9"",""#48a782""]","[""#7f5d5d"",""#5f6f81""]","3","false","[0.302,0.426,0.576,0.736]","3","0",""
"","","","","","two-step-trial","34","2689927","0.0-8.0-0.0","","","","","","","","","[2,3]","1","3","2527","0","[1280,720]","1","[0,1]","1","1","467","1","1","[""#955db9"",""#48a782""]","[""#7f5d5d"",""#5f6f81""]","4","false","[0.362,0.43,0.582,0.702]","3","0",""
"","","","","","two-step-trial","35","2693135","0.0-9.0-0.0","","","","","","","","","[2,3]","0","2","408","0","[1280,720]","1","[0,1]","1","1","796","1","1","[""#955db9"",""#48a782""]","[""#7f5d5d"",""#5f6f81""]","5","false","[0.368,0.485,0.615,0.711]","3","0",""
"","","","","","two-step-trial","36","2696247","0.0-10.0-0.0","","","","","","","","","[2,3]","0","2","535","1","[1280,720]","1","[0,1]","1","1","572","1","1","[""#955db9"",""#48a782""]","[""#7f5d5d"",""#5f6f81""]","6","false","[0.404,0.486,0.616,0.744]","3","0",""
"","","","","","two-step-trial","37","2699496","0.0-11.0-0.0","","","","","","","","","[2,3]","0","2","752","1","[1280,720]","1","[0,1]","1","1","493","1","1","[""#955db9"",""#48a782""]","[""#7f5d5d"",""#5f6f81""]","7","false","[0.387,0.453,0.558,0.725]","3","0",""
"","","","","","two-step-trial","38","2702847","0.0-12.0-0.0","","","","","","","","","[2,3]","0","2","560","1","[1280,720]","1","[0,1]","1","1","789","1","1","[""#955db9"",""#48a782""]","[""#7f5d5d"",""#5f6f81""]","8","false","[0.438,0.474,0.539,0.737]","3","0",""
"","","","","","two-step-trial","39","2705638","0.0-13.0-0.0","","","","","","","","","[2,3]","0","2","344","0","[1280,720]","1","[0,1]","1","1","445","1","1","[""#955db9"",""#48a782""]","[""#7f5d5d"",""#5f6f81""]","9","false","[0.459,0.489,0.53,0.714]","3","0",""
"","","","","","two-step-trial","40","2708390","0.0-14.0-0.0","","","","","","","","","[2,3]","0","2","360","1","[1280,720]","1","[0,1]","1","1","389","1","1","[""#955db9"",""#48a782""]","[""#7f5d5d"",""#5f6f81""]","10","false","[0.45,0.506,0.534,0.707]","3","0",""
"","","","","","two-step-trial","41","2711359","0.0-15.0-0.0","","","","","","","","","[2,3]","0","2","518","0","[1280,720]","1","[0,1]","1","1","444","1","1","[""#955db9"",""#48a782""]","[""#7f5d5d"",""#5f6f81""]","11","false","[0.425,0.476,0.477,0.71]","3","0",""
"","","","","","two-step-trial","42","2714480","0.0-16.0-0.0","","","","","","","","","[0,1]","0","0","416","0","[1280,720]","1","[0,1]","1","1","701","0","0","[""#955db9"",""#48a782""]","[""#7f5d5d"",""#5f6f81""]","12","false","[0.397,0.483,0.492,0.681]","3","0",""
"","","","","","two-step-trial","43","2718375","0.0-17.0-0.0","","","","","","","","","[0,1]","1","1","838","1","[1280,720]","1","[0,1]","0","0","1052","1","0","[""#955db9"",""#48a782""]","[""#7f5d5d"",""#5f6f81""]","13","false","[0.407,0.496,0.476,0.697]","3","0",""
"","","","","","two-step-trial","44","2721679","0.0-18.0-0.0","","","","","","","","","[0,1]","1","1","417","0","[1280,720]","1","[0,1]","0","0","884","1","0","[""#955db9"",""#48a782""]","[""#7f5d5d"",""#5f6f81""]","14","false","[0.369,0.494,0.493,0.747]","3","0",""
"","","","","","two-step-trial","45","2726087","0.0-19.0-0.0","","","","","","","","","[2,3]","0","2","2039","1","[1280,720]","1","[0,1]","0","0","363","0","1","[""#955db9"",""#48a782""]","[""#7f5d5d"",""#5f6f81""]","15","false","[0.342,0.537,0.465,0.735]","3","0",""
"","","","","","two-step-trial","46","2732143","0.0-20.0-0.0","","","","","","","","","[2,3]","0","2","2271","1","[1280,720]","1","[0,1]","1","1","1781","1","1","[""#955db9"",""#48a782""]","[""#7f5d5d"",""#5f6f81""]","16","false","[0.313,0.512,0.467,0.743]","3","0",""
"","","","","","two-step-trial","47","2736879","0.0-21.0-0.0","","","","","","","","","[0,1]","1","1","1118","1","[1280,720]","1","[0,1]","1","1","1614","0","0","[""#955db9"",""#48a782""]","[""#7f5d5d"",""#5f6f81""]","17","false","[0.313,0.504,0.486,0.73]","3","0",""
"","","","","","two-step-trial","48","2745446","0.0-22.0-0.0","","","","","","","","","[0,1]","1","1","5431","0","[1280,720]","1","[0,1]","0","0","1132","1","0","[""#955db9"",""#48a782""]","[""#7f5d5d"",""#5f6f81""]","18","false","[0.334,0.526,0.501,0.707]","3","0",""
"","","","","","two-step-trial","49","2749382","0.0-23.0-0.0","","","","","","","","","[2,3]","0","2","751","0","[1280,720]","1","[0,1]","1","1","1182","1","1","[""#955db9"",""#48a782""]","[""#7f5d5d"",""#5f6f81""]","19","false","[0.312,0.543,0.473,0.695]","3","0",""
"","","","","","two-step-trial","50","2752911","0.0-24.0-0.0","","","","","","","","","[0,1]","1","1","919","1","[1280,720]","1","[0,1]","1","1","605","0","0","[""#955db9"",""#48a782""]","[""#7f5d5d"",""#5f6f81""]","20","false","[0.304,0.536,0.482,0.668]","3","0",""
"","","","","","two-step-trial","51","2757766","0.0-25.0-0.0","","","","","","","","","[2,3]","1","3","1550","1","[1280,720]","1","[0,1]","1","1","1301","1","1","[""#955db9"",""#48a782""]","[""#7f5d5d"",""#5f6f81""]","21","false","[0.309,0.543,0.477,0.682]","3","0",""
"","","","","","two-step-trial","52","2762431","0.0-26.0-0.0","","","","","","","","","[0,1]","1","1","1279","0","[1280,720]","1","[0,1]","1","1","1382","0","0","[""#955db9"",""#48a782""]","[""#7f5d5d"",""#5f6f81""]","22","false","[0.301,0.563,0.45,0.702]","3","0",""
"","","","","","two-step-trial","53","2766231","0.0-27.0-0.0","","","","","","","","","[2,3]","1","3","1143","1","[1280,720]","1","[0,1]","1","1","652","1","1","[""#955db9"",""#48a782""]","[""#7f5d5d"",""#5f6f81""]","23","false","[0.322,0.569,0.42,0.742]","3","0",""
"","","","","","two-step-trial","54","2771374","0.0-28.0-0.0","","","","","","","","","[0,1]","0","0","2047","1","[1280,720]","1","[0,1]","1","1","1093","0","0","[""#955db9"",""#48a782""]","[""#7f5d5d"",""#5f6f81""]","24","false","[0.298,0.566,0.43,0.74]","3","0",""
"","","","","","two-step-trial","55","2776080","0.0-29.0-0.0","","","","","","","","","[0,1]","0","0","1847","0","[1280,720]","1","[0,1]","1","1","853","0","0","[""#955db9"",""#48a782""]","[""#7f5d5d"",""#5f6f81""]","25","false","[0.293,0.552,0.394,0.669]","3","0",""
"","","","","","two-step-trial","56","2779231","0.0-30.0-0.0","","","","","","","","","[2,3]","0","2","687","1","[1280,720]","1","[0,1]","1","1","461","1","1","[""#955db9"",""#48a782""]","[""#7f5d5d"",""#5f6f81""]","26","false","[0.285,0.566,0.393,0.625]","3","0",""
"","","","","","two-step-trial","57","2782623","0.0-31.0-0.0","","","","","","","","","[0,1]","1","1","719","0","[1280,720]","1","[0,1]","1","1","668","0","0","[""#955db9"",""#48a782""]","[""#7f5d5d"",""#5f6f81""]","27","false","[0.303,0.511,0.422,0.685]","3","0",""
"","","","","","two-step-trial","58","2785791","0.0-32.0-0.0","","","","","","","","","[0,1]","0","0","575","0","[1280,720]","1","[0,1]","1","1","590","0","0","[""#955db9"",""#48a782""]","[""#7f5d5d"",""#5f6f81""]","28","false","[0.301,0.517,0.418,0.733]","3","0",""
"","","","","","two-step-trial","59","2789784","0.0-33.0-0.0","","","","","","","","","[2,3]","1","3","1464","1","[1280,720]","1","[0,1]","1","1","524","1","1","[""#955db9"",""#48a782""]","[""#7f5d5d"",""#5f6f81""]","29","false","[0.345,0.508,0.373,0.733]","3","0",""
"","","","","","two-step-trial","60","2795127","0.0-34.0-0.0","","","","","","","","","[0,1]","0","0","1263","0","[1280,720]","1","[0,1]","0","0","2076","1","0","[""#955db9"",""#48a782""]","[""#7f5d5d"",""#5f6f81""]","30","false","[0.33,0.509,0.425,0.737]","3","0",""
"","","","","","two-step-trial","61","2798135","0.0-35.0-0.0","","","","","","","","","[0,1]","1","1","535","1","[1280,720]","1","[0,1]","0","0","469","1","0","[""#955db9"",""#48a782""]","[""#7f5d5d"",""#5f6f81""]","31","false","[0.33,0.475,0.428,0.706]","3","0",""
"","","","","","two-step-trial","62","2801199","0.0-36.0-0.0","","","","","","","","","[0,1]","1","1","568","0","[1280,720]","1","[0,1]","0","0","494","1","0","[""#955db9"",""#48a782""]","[""#7f5d5d"",""#5f6f81""]","32","false","[0.332,0.492,0.442,0.701]","3","0",""
"","","","","","two-step-trial","63","2804185","0.0-37.0-0.0","","","","","","","","","[0,1]","1","1","617","0","[1280,720]","1","[0,1]","0","0","364","1","0","[""#955db9"",""#48a782""]","[""#7f5d5d"",""#5f6f81""]","33","false","[0.306,0.461,0.388,0.724]","3","0",""
"","","","","","two-step-trial","64","2806975","0.0-38.0-0.0","","","","","","","","","[0,1]","0","0","520","0","[1280,720]","1","[0,1]","0","0","268","1","0","[""#955db9"",""#48a782""]","[""#7f5d5d"",""#5f6f81""]","34","false","[0.335,0.445,0.418,0.721]","3","0",""
"","","","","","two-step-trial","65","2810280","0.0-39.0-0.0","","","","","","","","","[0,1]","1","1","463","1","[1280,720]","1","[0,1]","0","0","838","1","0","[""#955db9"",""#48a782""]","[""#7f5d5d"",""#5f6f81""]","35","false","[0.342,0.479,0.439,0.713]","3","0",""
"","","","","","two-step-trial","66","2818552","0.0-40.0-0.0","","","","","","","","","[0,1]","0","0","5247","0","[1280,720]","1","[0,1]","0","0","1022","1","0","[""#955db9"",""#48a782""]","[""#7f5d5d"",""#5f6f81""]","36","false","[0.323,0.462,0.51,0.711]","3","0",""
"","","","","","two-step-trial","67","2822025","0.0-41.0-0.0","","","","","","","","","[2,3]","1","3","632","1","[1280,720]","1","[0,1]","1","1","837","1","1","[""#955db9"",""#48a782""]","[""#7f5d5d"",""#5f6f81""]","37","false","[0.323,0.441,0.493,0.674]","3","0",""
"","","","","","two-step-trial","68","2826696","0.0-42.0-0.0","","","","","","","","","[0,1]","0","0","1112","1","[1280,720]","1","[0,1]","1","1","1556","0","0","[""#955db9"",""#48a782""]","[""#7f5d5d"",""#5f6f81""]","38","false","[0.361,0.419,0.482,0.648]","3","0",""
"","","","","","two-step-trial","69","2831384","0.0-43.0-0.0","","","","","","","","","[2,3]","0","2","1497","1","[1280,720]","1","[0,1]","1","1","1188","1","1","[""#955db9"",""#48a782""]","[""#7f5d5d"",""#5f6f81""]","39","false","[0.386,0.389,0.441,0.619]","3","0",""
"","","","","","two-step-trial","70","2836495","0.0-44.0-0.0","","","","","","","","","[2,3]","1","3","1927","1","[1280,720]","1","[0,1]","1","1","1181","1","1","[""#955db9"",""#48a782""]","[""#7f5d5d"",""#5f6f81""]","40","false","[0.384,0.374,0.431,0.605]","3","0",""
"","","","","","two-step-trial","71","2852865","0.0-45.0-0.0","","","","","","","","","[2,3]","null","null","null","null","[1280,720]","1","[0,1]","1","1","565","1","1","[""#955db9"",""#48a782""]","[""#7f5d5d"",""#5f6f81""]","41","true","[0.382,0.413,0.442,0.617]","3","0",""
"","","","","","two-step-trial","72","2856744","0.0-45.1-0.1","","","","","","","","","[2,3]","1","3","950","1","[1280,720]","1","[0,1]","1","1","924","1","1","[""#955db9"",""#48a782""]","[""#7f5d5d"",""#5f6f81""]","41","false","[0.382,0.413,0.442,0.617]","3","0",""
"","","","","","two-step-trial","73","2860776","0.0-46.0-0.0","","","","","","","","","[0,1]","0","0","687","1","[1280,720]","1","[0,1]","0","0","1341","1","0","[""#955db9"",""#48a782""]","[""#7f5d5d"",""#5f6f81""]","42","false","[0.398,0.39,0.424,0.641]","3","0",""
"","","","","","two-step-trial","74","2864376","0.0-47.0-0.0","","","","","","","","","[2,3]","0","2","783","0","[1280,720]","1","[0,1]","0","0","814","0","1","[""#955db9"",""#48a782""]","[""#7f5d5d"",""#5f6f81""]","43","false","[0.37,0.404,0.412,0.63]","3","0",""
"","","","","","two-step-trial","75","2868961","0.0-48.0-0.0","","","","","","","","","[2,3]","0","2","1927","0","[1280,720]","1","[0,1]","0","0","654","0","1","[""#955db9"",""#48a782""]","[""#7f5d5d"",""#5f6f81""]","44","false","[0.417,0.444,0.403,0.613]","3","0",""
"","","","","","two-step-trial","76","2871912","0.0-49.0-0.0","","","","","","","","","[2,3]","1","3","408","0","[1280,720]","1","[0,1]","0","0","540","0","1","[""#955db9"",""#48a782""]","[""#7f5d5d"",""#5f6f81""]","45","false","[0.439,0.427,0.37,0.612]","3","0",""
"","","","","","two-step-trial","77","2875481","0.0-50.0-0.0","","","","","","","","","[0,1]","1","1","960","0","[1280,720]","1","[0,1]","0","0","604","1","0","[""#955db9"",""#48a782""]","[""#7f5d5d"",""#5f6f81""]","46","false","[0.459,0.416,0.369,0.621]","3","0",""
"","","","","","two-step-trial","78","2878928","0.0-51.0-0.0","","","","","","","","","[2,3]","1","3","719","1","[1280,720]","1","[0,1]","1","1","726","1","1","[""#955db9"",""#48a782""]","[""#7f5d5d"",""#5f6f81""]","47","false","[0.475,0.425,0.384,0.6]","3","0",""
"","","","","","two-step-trial","79","2882640","0.0-52.0-0.0","","","","","","","","","[0,1]","1","1","942","1","[1280,720]","1","[0,1]","1","1","765","0","0","[""#955db9"",""#48a782""]","[""#7f5d5d"",""#5f6f81""]","48","false","[0.438,0.4,0.412,0.606]","3","0",""
"","","","","","two-step-trial","80","2886625","0.0-53.0-0.0","","","","","","","","","[2,3]","0","2","1342","0","[1280,720]","1","[0,1]","1","1","639","1","1","[""#955db9"",""#48a782""]","[""#7f5d5d"",""#5f6f81""]","49","false","[0.47,0.408,0.421,0.598]","3","0",""
"","","","","","two-step-trial","81","2889585","0.0-54.0-0.0","","","","","","","","","[0,1]","1","1","535","0","[1280,720]","1","[0,1]","1","1","421","0","0","[""#955db9"",""#48a782""]","[""#7f5d5d"",""#5f6f81""]","50","false","[0.41,0.42,0.42,0.6]","3","0",""
"","","","","","two-step-trial","82","2893521","0.0-55.0-0.0","","","","","","","","","[2,3]","1","3","1391","1","[1280,720]","1","[0,1]","1","1","541","1","1","[""#955db9"",""#48a782""]","[""#7f5d5d"",""#5f6f81""]","51","false","[0.412,0.415,0.461,0.564]","3","0",""
"","","","","","two-step-trial","83","2897872","0.0-56.0-0.0","","","","","","","","","[2,3]","1","3","1365","0","[1280,720]","1","[0,1]","1","1","980","1","1","[""#955db9"",""#48a782""]","[""#7f5d5d"",""#5f6f81""]","52","false","[0.424,0.4,0.482,0.568]","3","0",""
"","","","","","two-step-trial","84","2901049","0.0-57.0-0.0","","","","","","","","","[2,3]","1","3","527","0","[1280,720]","1","[0,1]","1","1","646","1","1","[""#955db9"",""#48a782""]","[""#7f5d5d"",""#5f6f81""]","53","false","[0.449,0.35,0.448,0.582]","3","0",""
"","","","","","two-step-trial","85","2905728","0.0-58.0-0.0","","","","","","","","","[2,3]","0","2","2215","1","[1280,720]","1","[0,1]","1","1","461","1","1","[""#955db9"",""#48a782""]","[""#7f5d5d"",""#5f6f81""]","54","false","[0.409,0.381,0.436,0.573]","3","0",""
"","","","","","two-step-trial","86","2909593","0.0-59.0-0.0","","","","","","","","","[0,1]","1","1","1181","0","[1280,720]","1","[0,1]","0","0","677","1","0","[""#955db9"",""#48a782""]","[""#7f5d5d"",""#5f6f81""]","55","false","[0.408,0.407,0.428,0.609]","3","0",""
"","","","","","two-step-trial","87","2912578","0.0-60.0-0.0","","","","","","","","","[0,1]","1","1","488","0","[1280,720]","1","[0,1]","0","0","492","1","0","[""#955db9"",""#48a782""]","[""#7f5d5d"",""#5f6f81""]","56","false","[0.417,0.354,0.381,0.598]","3","0",""
"","","","","","two-step-trial","88","2916353","0.0-61.0-0.0","","","","","","","","","[0,1]","0","0","1336","1","[1280,720]","1","[0,1]","0","0","436","1","0","[""#955db9"",""#48a782""]","[""#7f5d5d"",""#5f6f81""]","57","false","[0.462,0.35,0.396,0.55]","3","0",""
"","","","","","two-step-trial","89","2919562","0.0-62.0-0.0","","","","","","","","","[2,3]","0","2","585","0","[1280,720]","1","[0,1]","0","0","621","0","1","[""#955db9"",""#48a782""]","[""#7f5d5d"",""#5f6f81""]","58","false","[0.474,0.332,0.382,0.55]","3","0",""
"","","","","","two-step-trial","90","2923273","0.0-63.0-0.0","","","","","","","","","[0,1]","1","1","648","0","[1280,720]","1","[0,1]","0","0","1060","1","0","[""#955db9"",""#48a782""]","[""#7f5d5d"",""#5f6f81""]","59","false","[0.462,0.326,0.376,0.559]","3","0",""
"","","","","","two-step-trial","91","2927273","0.0-64.0-0.0","","","","","","","","","[0,1]","1","1","1240","1","[1280,720]","1","[0,1]","0","0","758","1","0","[""#955db9"",""#48a782""]","[""#7f5d5d"",""#5f6f81""]","60","false","[0.432,0.348,0.372,0.56]","3","0",""
"","","","","","two-step-trial","92","2930552","0.0-65.0-0.0","","","","","","","","","[0,1]","1","1","454","0","[1280,720]","1","[0,1]","0","0","821","1","0","[""#955db9"",""#48a782""]","[""#7f5d5d"",""#5f6f81""]","61","false","[0.43,0.371,0.389,0.587]","3","0",""
"","","","","","two-step-trial","93","2934121","0.0-66.0-0.0","","","","","","","","","[2,3]","0","2","639","1","[1280,720]","1","[0,1]","0","0","926","0","1","[""#955db9"",""#48a782""]","[""#7f5d5d"",""#5f6f81""]","62","false","[0.426,0.371,0.382,0.585]","3","0",""
"","","","","","two-step-trial","94","2938280","0.0-67.0-0.0","","","","","","","","","[0,1]","1","1","1391","1","[1280,720]","1","[0,1]","0","0","765","1","0","[""#955db9"",""#48a782""]","[""#7f5d5d"",""#5f6f81""]","63","false","[0.431,0.358,0.396,0.59]","3","0",""
"","","","","","two-step-trial","95","2942769","0.0-68.0-0.0","","","","","","","","","[2,3]","0","2","1774","0","[1280,720]","1","[0,1]","0","0","711","0","1","[""#955db9"",""#48a782""]","[""#7f5d5d"",""#5f6f81""]","64","false","[0.392,0.299,0.415,0.581]","3","0",""
"","","","","","two-step-trial","96","2947098","0.0-69.0-0.0","","","","","","","","","[0,1]","1","1","871","1","[1280,720]","1","[0,1]","0","0","1453","1","0","[""#955db9"",""#48a782""]","[""#7f5d5d"",""#5f6f81""]","65","false","[0.371,0.329,0.405,0.589]","3","0",""
"","","","","","two-step-trial","97","2953225","0.0-70.0-0.0","","","","","","","","","[0,1]","1","1","2646","1","[1280,720]","1","[0,1]","1","1","1478","0","0","[""#955db9"",""#48a782""]","[""#7f5d5d"",""#5f6f81""]","66","false","[0.354,0.287,0.413,0.591]","3","0",""
"","","","","","two-step-trial","98","2957193","0.0-71.0-0.0","","","","","","","","","[2,3]","0","2","1230","0","[1280,720]","1","[0,1]","1","1","734","1","1","[""#955db9"",""#48a782""]","[""#7f5d5d"",""#5f6f81""]","67","false","[0.398,0.254,0.426,0.603]","3","0",""
"","","","","","two-step-trial","99","2960177","0.0-72.0-0.0","","","","","","","","","[2,3]","1","3","438","0","[1280,720]","1","[0,1]","1","1","541","1","1","[""#955db9"",""#48a782""]","[""#7f5d5d"",""#5f6f81""]","68","false","[0.425,0.254,0.441,0.582]","3","0",""
"","","","","","two-step-trial","100","2963265","0.0-73.0-0.0","","","","","","","","","[0,1]","1","1","622","0","[1280,720]","1","[0,1]","0","0","461","1","0","[""#955db9"",""#48a782""]","[""#7f5d5d"",""#5f6f81""]","69","false","[0.474,0.287,0.392,0.531]","3","0",""
"","","","","","two-step-trial","101","2967313","0.0-74.0-0.0","","","","","","","","","[2,3]","1","3","1527","1","[1280,720]","1","[0,1]","1","1","518","1","1","[""#955db9"",""#48a782""]","[""#7f5d5d"",""#5f6f81""]","70","false","[0.51,0.279,0.378,0.487]","3","0",""
"","","","","","two-step-trial","102","2971994","0.0-75.0-0.0","","","","","","","","","[2,3]","1","3","1911","0","[1280,720]","1","[0,1]","1","1","765","1","1","[""#955db9"",""#48a782""]","[""#7f5d5d"",""#5f6f81""]","71","false","[0.506,0.269,0.381,0.477]","3","0",""
"","","","","","two-step-trial","103","2975737","0.0-76.0-0.0","","","","","","","","","[0,1]","1","1","1183","0","[1280,720]","1","[0,1]","0","0","557","1","0","[""#955db9"",""#48a782""]","[""#7f5d5d"",""#5f6f81""]","72","false","[0.541,0.263,0.39,0.466]","3","0",""
"","","","","","two-step-trial","104","2979226","0.0-77.0-0.0","","","","","","","","","[0,1]","1","1","743","0","[1280,720]","1","[0,1]","0","0","743","1","0","[""#955db9"",""#48a782""]","[""#7f5d5d"",""#5f6f81""]","73","false","[0.49,0.271,0.373,0.466]","3","0",""
"","","","","","two-step-trial","105","2983706","0.0-78.0-0.0","","","","","","","","","[2,3]","0","2","1927","0","[1280,720]","1","[0,1]","0","0","548","0","1","[""#955db9"",""#48a782""]","[""#7f5d5d"",""#5f6f81""]","74","false","[0.512,0.277,0.41,0.457]","3","0",""
"","","","","","two-step-trial","106","2987314","0.0-79.0-0.0","","","","","","","","","[2,3]","0","2","727","1","[1280,720]","1","[0,1]","1","1","875","1","1","[""#955db9"",""#48a782""]","[""#7f5d5d"",""#5f6f81""]","75","false","[0.537,0.271,0.42,0.478]","3","0",""
"","","","","","two-step-instructions","107","3005706","0.0-80.0","18389","","","[{""page_index"":0,""viewing_time"":14566},{""page_index"":1,""viewing_time"":3823}]","","","","","","","","","","","","","","","","","","","","","","","","",""
"","","","","","two-step-trial","108","3011555","0.0-81.0-0.0","","","","","","","","","[0,1]","1","1","543","0","[1280,720]","1","[0,1]","1","1","3300","0","0","[""#955db9"",""#48a782""]","[""#7f5d5d"",""#5f6f81""]","76","false","[0.539,0.257,0.455,0.448]","3","0",""
"","","","","","two-step-trial","109","3014778","0.0-82.0-0.0","","","","","","","","","[2,3]","0","2","503","1","[1280,720]","1","[0,1]","1","1","717","1","1","[""#955db9"",""#48a782""]","[""#7f5d5d"",""#5f6f81""]","77","false","[0.56,0.261,0.459,0.423]","3","0",""
"","","","","","two-step-trial","110","3018354","0.0-83.0-0.0","","","","","","","","","[0,1]","1","1","845","0","[1280,720]","1","[0,1]","1","1","725","0","0","[""#955db9"",""#48a782""]","[""#7f5d5d"",""#5f6f81""]","78","false","[0.543,0.26,0.436,0.441]","3","0",""
"","","","","","two-step-trial","111","3021908","0.0-84.0-0.0","","","","","","","","","[0,1]","0","0","489","1","[1280,720]","1","[0,1]","1","1","1061","0","0","[""#955db9"",""#48a782""]","[""#7f5d5d"",""#5f6f81""]","79","false","[0.536,0.268,0.465,0.475]","3","0",""
"","","","","","two-step-trial","112","3025458","0.0-85.0-0.0","","","","","","","","","[2,3]","1","3","837","0","[1280,720]","1","[0,1]","1","1","707","1","1","[""#955db9"",""#48a782""]","[""#7f5d5d"",""#5f6f81""]","80","false","[0.534,0.324,0.464,0.482]","3","0",""
"","","","","","two-step-trial","113","3028794","0.0-86.0-0.0","","","","","","","","","[2,3]","0","2","487","0","[1280,720]","1","[0,1]","1","1","845","1","1","[""#955db9"",""#48a782""]","[""#7f5d5d"",""#5f6f81""]","81","false","[0.553,0.309,0.445,0.465]","3","0",""
"","","","","","two-step-trial","114","3032618","0.0-87.0-0.0","","","","","","","","","[2,3]","1","3","768","0","[1280,720]","1","[0,1]","1","1","1053","1","1","[""#955db9"",""#48a782""]","[""#7f5d5d"",""#5f6f81""]","82","false","[0.563,0.291,0.404,0.437]","3","0",""
"","","","","","two-step-trial","115","3038723","0.0-88.0-0.0","","","","","","","","","[0,1]","0","0","2967","1","[1280,720]","1","[0,1]","0","0","1132","1","0","[""#955db9"",""#48a782""]","[""#7f5d5d"",""#5f6f81""]","83","false","[0.563,0.298,0.442,0.474]","3","0",""
"","","","","","two-step-trial","116","3044018","0.0-89.0-0.0","","","","","","","","","[2,3]","1","3","2407","1","[1280,720]","1","[0,1]","0","0","885","0","1","[""#955db9"",""#48a782""]","[""#7f5d5d"",""#5f6f81""]","84","false","[0.591,0.316,0.454,0.449]","3","0",""
"","","","","","two-step-trial","117","3047236","0.0-90.0-0.0","","","","","","","","","[0,1]","1","1","439","1","[1280,720]","1","[0,1]","0","0","772","1","0","[""#955db9"",""#48a782""]","[""#7f5d5d"",""#5f6f81""]","85","false","[0.57,0.324,0.436,0.421]","3","0",""
"","","","","","two-step-trial","118","3050018","0.0-91.0-0.0","","","","","","","","","[0,1]","1","1","417","1","[1280,720]","1","[0,1]","0","0","364","1","0","[""#955db9"",""#48a782""]","[""#7f5d5d"",""#5f6f81""]","86","false","[0.531,0.336,0.408,0.378]","3","0",""
"","","","","","two-step-trial","119","3053122","0.0-92.0-0.0","","","","","","","","","[0,1]","1","1","1047","0","[1280,720]","1","[0,1]","0","0","53","1","0","[""#955db9"",""#48a782""]","[""#7f5d5d"",""#5f6f81""]","87","false","[0.529,0.309,0.432,0.403]","3","0",""
"","","","","","two-step-trial","120","3057810","0.0-93.0-0.0","","","","","","","","","[0,1]","1","1","1407","1","[1280,720]","1","[0,1]","0","0","1277","1","0","[""#955db9"",""#48a782""]","[""#7f5d5d"",""#5f6f81""]","88","false","[0.532,0.296,0.431,0.406]","3","0",""
"","","","","","two-step-trial","121","3068507","0.0-94.0-0.0","","","","","","","","","[2,3]","0","2","552","0","[1280,720]","1","[0,1]","1","1","8141","1","1","[""#955db9"",""#48a782""]","[""#7f5d5d"",""#5f6f81""]","89","false","[0.553,0.328,0.456,0.411]","3","0",""
"","","","","","two-step-trial","122","3071508","0.0-95.0-0.0","","","","","","","","","[0,1]","1","1","416","0","[1280,720]","1","[0,1]","0","0","580","1","0","[""#955db9"",""#48a782""]","[""#7f5d5d"",""#5f6f81""]","90","false","[0.542,0.3,0.493,0.409]","3","0",""
"","","","","","two-step-trial","123","3075650","0.0-96.0-0.0","","","","","","","","","[0,1]","0","0","1560","1","[1280,720]","1","[0,1]","0","0","579","1","0","[""#955db9"",""#48a782""]","[""#7f5d5d"",""#5f6f81""]","91","false","[0.54,0.298,0.512,0.437]","3","0",""
"","","","","","two-step-trial","124","3078986","0.0-97.0-0.0","","","","","","","","","[0,1]","1","1","589","0","[1280,720]","1","[0,1]","1","1","743","0","0","[""#955db9"",""#48a782""]","[""#7f5d5d"",""#5f6f81""]","92","false","[0.564,0.281,0.499,0.45]","3","0",""
"","","","","","two-step-trial","125","3081970","0.0-98.0-0.0","","","","","","","","","[0,1]","0","0","470","1","[1280,720]","1","[0,1]","1","1","509","0","0","[""#955db9"",""#48a782""]","[""#7f5d5d"",""#5f6f81""]","93","false","[0.542,0.268,0.44,0.42]","3","0",""
"","","","","","two-step-trial","126","3085066","0.0-99.0-0.0","","","","","","","","","[0,1]","0","0","526","1","[1280,720]","1","[0,1]","1","1","565","0","0","[""#955db9"",""#48a782""]","[""#7f5d5d"",""#5f6f81""]","94","false","[0.539,0.26,0.421,0.438]","3","0",""
"","","","","","two-step-trial","127","3088019","0.0-100.0-0.0","","","","","","","","","[0,1]","0","0","496","1","[1280,720]","1","[0,1]","1","1","454","0","0","[""#955db9"",""#48a782""]","[""#7f5d5d"",""#5f6f81""]","95","false","[0.583,0.272,0.407,0.449]","3","0",""
"","","","","","two-step-trial","128","3090786","0.0-101.0-0.0","","","","","","","","","[0,1]","0","0","390","1","[1280,720]","1","[0,1]","1","1","372","0","0","[""#955db9"",""#48a782""]","[""#7f5d5d"",""#5f6f81""]","96","false","[0.596,0.257,0.37,0.508]","3","0",""
"","","","","","two-step-trial","129","3093554","0.0-102.0-0.0","","","","","","","","","[2,3]","0","2","367","1","[1280,720]","1","[0,1]","1","1","398","1","1","[""#955db9"",""#48a782""]","[""#7f5d5d"",""#5f6f81""]","97","false","[0.6,0.317,0.384,0.526]","3","0",""
"","","","","","two-step-trial","130","3096619","0.0-103.0-0.0","","","","","","","","","[2,3]","0","2","526","0","[1280,720]","1","[0,1]","1","1","534","1","1","[""#955db9"",""#48a782""]","[""#7f5d5d"",""#5f6f81""]","98","false","[0.573,0.304,0.387,0.504]","3","0",""
"","","","","","two-step-trial","131","3099835","0.0-104.0-0.0","","","","","","","","","[2,3]","1","3","1111","0","[1280,720]","1","[0,1]","1","1","100","1","1","[""#955db9"",""#48a782""]","[""#7f5d5d"",""#5f6f81""]","99","false","[0.567,0.288,0.405,0.531]","3","0",""
"","","","","","two-step-trial","132","3103187","0.0-105.0-0.0","","","","","","","","","[2,3]","0","2","599","0","[1280,720]","1","[0,1]","1","1","748","1","1","[""#955db9"",""#48a782""]","[""#7f5d5d"",""#5f6f81""]","100","false","[0.535,0.255,0.402,0.526]","3","0",""
"","","","","","two-step-trial","133","3109346","0.0-106.0-0.0","","","","","","","","","[0,1]","1","1","2440","1","[1280,720]","1","[0,1]","0","0","1718","1","0","[""#955db9"",""#48a782""]","[""#7f5d5d"",""#5f6f81""]","101","false","[0.52,0.27,0.348,0.507]","3","0",""
"","","","","","two-step-trial","134","3112715","0.0-107.0-0.0","","","","","","","","","[0,1]","1","1","502","0","[1280,720]","1","[0,1]","1","1","862","0","0","[""#955db9"",""#48a782""]","[""#7f5d5d"",""#5f6f81""]","102","false","[0.518,0.277,0.374,0.503]","3","0",""
"","","","","","two-step-trial","135","3116155","0.0-108.0-0.0","","","","","","","","","[2,3]","1","3","822","0","[1280,720]","1","[0,1]","1","1","613","1","1","[""#955db9"",""#48a782""]","[""#7f5d5d"",""#5f6f81""]","103","false","[0.492,0.318,0.345,0.483]","3","0",""
"","","","","","two-step-trial","136","3119603","0.0-109.0-0.0","","","","","","","","","[0,1]","1","1","831","0","[1280,720]","1","[0,1]","1","1","611","0","0","[""#955db9"",""#48a782""]","[""#7f5d5d"",""#5f6f81""]","104","false","[0.494,0.305,0.344,0.485]","3","0",""
"","","","","","two-step-trial","137","3123131","0.0-110.0-0.0","","","","","","","","","[0,1]","0","0","838","1","[1280,720]","1","[0,1]","1","1","686","0","0","[""#955db9"",""#48a782""]","[""#7f5d5d"",""#5f6f81""]","105","false","[0.496,0.279,0.36,0.503]","3","0",""
"","","","","","two-step-trial","138","3126419","0.0-111.0-0.0","","","","","","","","","[0,1]","0","0","638","0","[1280,720]","1","[0,1]","1","1","646","0","0","[""#955db9"",""#48a782""]","[""#7f5d5d"",""#5f6f81""]","106","false","[0.522,0.291,0.358,0.537]","3","0",""
"","","","","","two-step-trial","139","3132122","0.0-112.0-0.0","","","","","","","","","[2,3]","1","3","3255","0","[1280,720]","1","[0,1]","1","1","445","1","1","[""#955db9"",""#48a782""]","[""#7f5d5d"",""#5f6f81""]","107","false","[0.481,0.324,0.357,0.499]","3","0",""
"","","","","","two-step-trial","140","3138092","0.0-113.0-0.0","","","","","","","","","[2,3]","1","3","552","0","[1280,720]","1","[0,1]","1","1","3412","1","1","[""#955db9"",""#48a782""]","[""#7f5d5d"",""#5f6f81""]","108","false","[0.504,0.334,0.327,0.481]","3","0",""
"","","","","","two-step-trial","141","3143691","0.0-114.0-0.0","","","","","","","","","[2,3]","0","2","3111","0","[1280,720]","1","[0,1]","1","1","485","1","1","[""#955db9"",""#48a782""]","[""#7f5d5d"",""#5f6f81""]","109","false","[0.526,0.339,0.308,0.485]","3","0",""
"","","","","","two-step-trial","142","3147419","0.0-115.0-0.0","","","","","","","","","[2,3]","1","3","964","0","[1280,720]","1","[0,1]","1","1","757","1","1","[""#955db9"",""#48a782""]","[""#7f5d5d"",""#5f6f81""]","110","false","[0.551,0.358,0.295,0.444]","3","0",""
"","","","","","two-step-trial","143","3152284","0.0-116.0-0.0","","","","","","","","","[2,3]","0","2","1039","1","[1280,720]","1","[0,1]","0","0","1821","0","1","[""#955db9"",""#48a782""]","[""#7f5d5d"",""#5f6f81""]","111","false","[0.517,0.359,0.323,0.417]","3","0",""
"","","","","","two-step-trial","144","3155915","0.0-117.0-0.0","","","","","","","","","[0,1]","0","0","784","0","[1280,720]","1","[0,1]","0","0","844","1","0","[""#955db9"",""#48a782""]","[""#7f5d5d"",""#5f6f81""]","112","false","[0.506,0.34,0.322,0.412]","3","0",""
"","","","","","two-step-trial","145","3159258","0.0-118.0-0.0","","","","","","","","","[2,3]","1","3","591","0","[1280,720]","1","[0,1]","1","1","748","1","1","[""#955db9"",""#48a782""]","[""#7f5d5d"",""#5f6f81""]","113","false","[0.467,0.28,0.348,0.413]","3","0",""
"","","","","","two-step-trial","146","3162339","0.0-119.0-0.0","","","","","","","","","[2,3]","0","2","463","0","[1280,720]","1","[0,1]","1","1","615","1","1","[""#955db9"",""#48a782""]","[""#7f5d5d"",""#5f6f81""]","114","false","[0.494,0.276,0.373,0.43]","3","0",""
"","","","","","two-step-trial","147","3165716","0.0-120.0-0.0","","","","","","","","","[2,3]","1","3","679","0","[1280,720]","1","[0,1]","1","1","692","1","1","[""#955db9"",""#48a782""]","[""#7f5d5d"",""#5f6f81""]","115","false","[0.493,0.258,0.428,0.412]","3","0",""
"","","","","","two-step-trial","148","3168733","0.0-121.0-0.0","","","","","","","","","[0,1]","0","0","480","0","[1280,720]","1","[0,1]","1","1","534","0","0","[""#955db9"",""#48a782""]","[""#7f5d5d"",""#5f6f81""]","116","false","[0.492,0.266,0.447,0.466]","3","0",""
"","","","","","two-step-trial","149","3172627","0.0-122.0-0.0","","","","","","","","","[2,3]","1","3","926","0","[1280,720]","1","[0,1]","1","1","963","1","1","[""#955db9"",""#48a782""]","[""#7f5d5d"",""#5f6f81""]","117","false","[0.512,0.269,0.457,0.471]","3","0",""
"","","","","","two-step-trial","150","3176540","0.0-123.0-0.0","","","","","","","","","[2,3]","1","3","1158","0","[1280,720]","1","[0,1]","1","1","749","1","1","[""#955db9"",""#48a782""]","[""#7f5d5d"",""#5f6f81""]","118","false","[0.551,0.283,0.506,0.484]","3","0",""
"","","","","","two-step-trial","151","3180060","0.0-124.0-0.0","","","","","","","","","[0,1]","0","0","583","1","[1280,720]","1","[0,1]","0","0","934","1","0","[""#955db9"",""#48a782""]","[""#7f5d5d"",""#5f6f81""]","119","false","[0.537,0.273,0.462,0.473]","3","0",""
"","","","","","two-step-trial","152","3183988","0.0-125.0-0.0","","","","","","","","","[2,3]","0","2","926","1","[1280,720]","1","[0,1]","0","0","996","0","1","[""#955db9"",""#48a782""]","[""#7f5d5d"",""#5f6f81""]","120","false","[0.49,0.26,0.46,0.477]","3","0",""
"","","","","","two-step-trial","153","3188605","0.0-126.0-0.0","","","","","","","","","[0,1]","0","0","655","1","[1280,720]","1","[0,1]","0","0","1957","1","0","[""#955db9"",""#48a782""]","[""#7f5d5d"",""#5f6f81""]","121","false","[0.547,0.275,0.457,0.431]","3","0",""
"","","","","","two-step-trial","154","3195452","0.0-127.0-0.0","","","","","","","","","[0,1]","0","0","527","0","[1280,720]","1","[0,1]","0","0","4318","1","0","[""#955db9"",""#48a782""]","[""#7f5d5d"",""#5f6f81""]","122","false","[0.578,0.269,0.386,0.411]","3","0",""
"","","","","","two-step-trial","155","3198604","0.0-128.0-0.0","","","","","","","","","[0,1]","1","1","534","0","[1280,720]","1","[0,1]","0","0","613","1","0","[""#955db9"",""#48a782""]","[""#7f5d5d"",""#5f6f81""]","123","false","[0.639,0.269,0.384,0.429]","3","0",""
"","","","","","two-step-trial","156","3201947","0.0-129.0-0.0","","","","","","","","","[0,1]","0","0","614","1","[1280,720]","1","[0,1]","0","0","725","1","0","[""#955db9"",""#48a782""]","[""#7f5d5d"",""#5f6f81""]","124","false","[0.636,0.254,0.416,0.449]","3","0",""
"","","","","","two-step-trial","157","3205460","0.0-130.0-0.0","","","","","","","","","[0,1]","1","1","864","0","[1280,720]","1","[0,1]","0","0","645","1","0","[""#955db9"",""#48a782""]","[""#7f5d5d"",""#5f6f81""]","125","false","[0.665,0.257,0.44,0.433]","3","0",""
"","","","","","two-step-trial","158","3209612","0.0-131.0-0.0","","","","","","","","","[2,3]","0","2","470","0","[1280,720]","1","[0,1]","0","0","1677","0","1","[""#955db9"",""#48a782""]","[""#7f5d5d"",""#5f6f81""]","126","false","[0.694,0.25,0.453,0.414]","3","0",""
"","","","","","two-step-trial","159","3213684","0.0-132.0-0.0","","","","","","","","","[0,1]","1","1","415","0","[1280,720]","1","[0,1]","0","0","1652","1","0","[""#955db9"",""#48a782""]","[""#7f5d5d"",""#5f6f81""]","127","false","[0.666,0.266,0.449,0.399]","3","0",""
"","","","","","two-step-trial","160","3218244","0.0-133.0-0.0","","","","","","","","","[2,3]","1","3","1303","0","[1280,720]","1","[0,1]","0","0","1254","0","1","[""#955db9"",""#48a782""]","[""#7f5d5d"",""#5f6f81""]","128","false","[0.66,0.272,0.461,0.39]","3","0",""
"","","","","","two-step-trial","161","3225004","0.0-134.0-0.0","","","","","","","","","[2,3]","0","2","4087","0","[1280,720]","1","[0,1]","1","1","669","1","1","[""#955db9"",""#48a782""]","[""#7f5d5d"",""#5f6f81""]","129","false","[0.677,0.288,0.452,0.388]","3","0",""
"","","","","","two-step-trial","162","3229412","0.0-135.0-0.0","","","","","","","","","[2,3]","1","3","1512","0","[1280,720]","1","[0,1]","0","0","893","0","1","[""#955db9"",""#48a782""]","[""#7f5d5d"",""#5f6f81""]","130","false","[0.654,0.252,0.415,0.434]","3","0",""
"","","","","","two-step-trial","163","3232564","0.0-136.0-0.0","","","","","","","","","[0,1]","0","0","470","1","[1280,720]","1","[0,1]","0","0","677","1","0","[""#955db9"",""#48a782""]","[""#7f5d5d"",""#5f6f81""]","131","false","[0.662,0.271,0.398,0.411]","3","0",""
"","","","","","two-step-trial","164","3235732","0.0-137.0-0.0","","","","","","","","","[0,1]","0","0","455","0","[1280,720]","1","[0,1]","0","0","708","1","0","[""#955db9"",""#48a782""]","[""#7f5d5d"",""#5f6f81""]","132","false","[0.661,0.29,0.402,0.435]","3","0",""
"","","","","","two-step-trial","165","3242845","0.0-138.0-0.0","","","","","","","","","[2,3]","1","3","559","0","[1280,720]","1","[0,1]","0","0","4548","0","1","[""#955db9"",""#48a782""]","[""#7f5d5d"",""#5f6f81""]","133","false","[0.665,0.307,0.385,0.395]","3","0",""
"","","","","","two-step-trial","166","3245572","0.0-139.0-0.0","","","","","","","","","[0,1]","1","1","206","1","[1280,720]","1","[0,1]","0","0","516","1","0","[""#955db9"",""#48a782""]","[""#7f5d5d"",""#5f6f81""]","134","false","[0.696,0.308,0.332,0.425]","3","0",""
"","","","","","two-step-trial","167","3250101","0.0-140.0-0.0","","","","","","","","","[0,1]","1","1","520","0","[1280,720]","1","[0,1]","1","1","2004","0","0","[""#955db9"",""#48a782""]","[""#7f5d5d"",""#5f6f81""]","135","false","[0.68,0.339,0.346,0.425]","3","0",""
"","","","","","two-step-trial","168","3253108","0.0-141.0-0.0","","","","","","","","","[0,1]","1","1","471","0","[1280,720]","1","[0,1]","1","1","531","0","0","[""#955db9"",""#48a782""]","[""#7f5d5d"",""#5f6f81""]","136","false","[0.674,0.33,0.342,0.403]","3","0",""
"","","","","","two-step-trial","169","3256549","0.0-142.0-0.0","","","","","","","","","[2,3]","0","2","1032","1","[1280,720]","1","[0,1]","1","1","404","1","1","[""#955db9"",""#48a782""]","[""#7f5d5d"",""#5f6f81""]","137","false","[0.699,0.293,0.329,0.403]","3","0",""
"","","","","","two-step-trial","170","3260084","0.0-143.0-0.0","","","","","","","","","[2,3]","0","2","479","0","[1280,720]","1","[0,1]","1","1","1052","1","1","[""#955db9"",""#48a782""]","[""#7f5d5d"",""#5f6f81""]","138","false","[0.734,0.332,0.387,0.413]","3","0",""
"","","","","","two-step-trial","171","3263709","0.0-144.0-0.0","","","","","","","","","[2,3]","0","2","1296","1","[1280,720]","1","[0,1]","1","1","325","1","1","[""#955db9"",""#48a782""]","[""#7f5d5d"",""#5f6f81""]","139","false","[0.692,0.301,0.41,0.413]","3","0",""
"","","","","","two-step-trial","172","3266773","0.0-145.0-0.0","","","","","","","","","[0,1]","0","0","560","1","[1280,720]","1","[0,1]","1","1","500","0","0","[""#955db9"",""#48a782""]","[""#7f5d5d"",""#5f6f81""]","140","false","[0.722,0.286,0.408,0.406]","3","0",""
"","","","","","two-step-trial","173","3270516","0.0-146.0-0.0","","","","","","","","","[0,1]","1","1","1215","0","[1280,720]","1","[0,1]","0","0","525","1","0","[""#955db9"",""#48a782""]","[""#7f5d5d"",""#5f6f81""]","141","false","[0.748,0.253,0.428,0.403]","3","0",""
"","","","","","two-step-trial","174","3276030","0.0-147.0-0.0","","","","","","","","","[2,3]","0","2","1272","1","[1280,720]","1","[0,1]","0","0","2237","0","1","[""#955db9"",""#48a782""]","[""#7f5d5d"",""#5f6f81""]","142","false","[0.73,0.307,0.452,0.407]","3","0",""
"","","","","","two-step-trial","175","3279340","0.0-148.0-0.0","","","","","","","","","[0,1]","0","0","559","1","[1280,720]","1","[0,1]","0","0","747","1","0","[""#955db9"",""#48a782""]","[""#7f5d5d"",""#5f6f81""]","143","false","[0.722,0.322,0.426,0.388]","3","0",""
"","","","","","two-step-trial","176","3282412","0.0-149.0-0.0","","","","","","","","","[2,3]","0","2","648","0","[1280,720]","1","[0,1]","0","0","421","0","1","[""#955db9"",""#48a782""]","[""#7f5d5d"",""#5f6f81""]","144","false","[0.741,0.323,0.436,0.398]","3","0",""
"","","","","","two-step-trial","177","3288509","0.0-150.0-0.0","","","","","","","","","[0,1]","0","0","3608","1","[1280,720]","1","[0,1]","0","0","485","1","0","[""#955db9"",""#48a782""]","[""#7f5d5d"",""#5f6f81""]","145","false","[0.741,0.294,0.454,0.41]","3","0",""
"","","","","","two-step-trial","178","3291765","0.0-151.0-0.0","","","","","","","","","[0,1]","0","0","607","1","[1280,720]","1","[0,1]","0","0","644","1","0","[""#955db9"",""#48a782""]","[""#7f5d5d"",""#5f6f81""]","146","false","[0.741,0.316,0.493,0.383]","3","0",""
"","","","","","two-step-trial","179","3295669","0.0-152.0-0.0","","","","","","","","","[0,1]","0","0","1350","1","[1280,720]","1","[0,1]","0","0","548","1","0","[""#955db9"",""#48a782""]","[""#7f5d5d"",""#5f6f81""]","147","false","[0.733,0.288,0.53,0.358]","3","0",""
"","","","","","two-step-trial","180","3298757","0.0-153.0-0.0","","","","","","","","","[2,3]","0","2","535","1","[1280,720]","1","[0,1]","0","0","549","0","1","[""#955db9"",""#48a782""]","[""#7f5d5d"",""#5f6f81""]","148","false","[0.739,0.274,0.493,0.38]","3","0",""
"","","","","","two-step-trial","181","3301677","0.0-154.0-0.0","","","","","","","","","[0,1]","0","0","398","1","[1280,720]","1","[0,1]","0","0","516","1","0","[""#955db9"",""#48a782""]","[""#7f5d5d"",""#5f6f81""]","149","false","[0.736,0.271,0.496,0.399]","3","0",""
"","","","","","two-step-trial","182","3304797","0.0-155.0-0.0","","","","","","","","","[2,3]","0","2","639","0","[1280,720]","1","[0,1]","0","0","478","0","1","[""#955db9"",""#48a782""]","[""#7f5d5d"",""#5f6f81""]","150","false","[0.727,0.278,0.471,0.409]","3","0",""
"","","","","","two-step-instructions","183","3353701","0.0-156.0","48900","","","[{""page_index"":0,""viewing_time"":48900}]","","","","","","","","","","","","","","","","","","","","","","","","",""
"","","","","","two-step-comprehension","184","3373270","0.0-157.0","19565","","","","[""purple"",""green""]","0","","","","","","","","","","","","","","","","","","","","","","","[{""event"":""focus"",""trial"":0,""time"":1},{""event"":""blur"",""trial"":1,""time"":1489},{""event"":""focus"",""trial"":1,""time"":27444},{""event"":""blur"",""trial"":1,""time"":28640},{""event"":""focus"",""trial"":1,""time"":37727},{""event"":""blur"",""trial"":1,""time"":38112},{""event"":""focus"",""trial"":1,""time"":62600},{""event"":""blur"",""trial"":1,""time"":62989},{""event"":""focus"",""trial"":1,""time"":63708},{""event"":""blur"",""trial"":1,""time"":63914},{""event"":""focus"",""trial"":1,""time"":67055},{""event"":""blur"",""trial"":1,""time"":67402},{""event"":""focus"",""trial"":1,""time"":68791},{""event"":""blur"",""trial"":1,""time"":69216},{""event"":""focus"",""trial"":1,""time"":74117},{""event"":""blur"",""trial"":1,""time"":75136},{""event"":""focus"",""trial"":1,""time"":77200},{""event"":""blur"",""trial"":1,""time"":80845},{""event"":""focus"",""trial"":1,""time"":89090},{""event"":""blur"",""trial"":1,""time"":89684},{""event"":""focus"",""trial"":1,""time"":90227},{""event"":""blur"",""trial"":1,""time"":101467},{""event"":""focus"",""trial"":1,""time"":102992},{""event"":""blur"",""trial"":1,""time"":108015},{""event"":""focus"",""trial"":1,""time"":108102},{""event"":""blur"",""trial"":1,""time"":108133},{""event"":""focus"",""trial"":1,""time"":117451},{""event"":""blur"",""trial"":1,""time"":129544},{""event"":""focus"",""trial"":1,""time"":1028619},{""event"":""blur"",""trial"":1,""time"":1029238},{""event"":""focus"",""trial"":1,""time"":1030934},{""event"":""blur"",""trial"":1,""time"":1331074},{""event"":""focus"",""trial"":1,""time"":1348181},{""event"":""blur"",""trial"":1,""time"":1648209},{""event"":""focus"",""trial"":1,""time"":1958811},{""event"":""blur"",""trial"":1,""time"":2004932},{""event"":""focus"",""trial"":1,""time"":2005700},{""event"":""blur"",""trial"":1,""time"":2006221},{""event"":""focus"",""trial"":1,""time"":2136865},{""event"":""fullscreenenter"",""trial"":1,""time"":2141084},{""event"":""fullscreenexit"",""trial"":3,""time"":2220223}]"
