"success","timeout","failed_images","failed_audio","failed_video","trial_type","trial_index","time_elapsed","internal_node_id","rt","stimulus","response","view_history","state_1_ids","state_1_key","state_1_choice","state_1_rt","transition","state","state_2_ids","state_2_key","state_2_choice","state_2_rt","outcome","rocket_colors","planet_colors","screen_resolution","minimum_resolution","trial","drifts","drift_ix","browser_interactions","missing","responses","num_errors","interactions"
"true","false","[]","[]","[]","preload","0","191","0.0-0.0","","","","","","","","","","","","","","","","","","","","","","","","","","",""
"true","","","","","fullscreen","1","47257","0.0-1.0","","","","","","","","","","","","","","","","","","","","","","","","","","",""
"","","","","","html-keyboard-response","2","52826","0.0-2.0","5564","<p>You are starting a demo of the <b>two-step task.</b></p><p>To see the instructions, press the ""1"" key. To skip them, press the ""2"" key.</p>","2","","","","","","","","","","","","","","","","","","","","","","","",""
"","","","","","two-step-instructions","3","66816","0.0-4.0","13980.400000095367","","","[{""page_index"":0,""viewing_time"":3246.9000000953674},{""page_index"":1,""viewing_time"":4570.899999976158},{""page_index"":2,""viewing_time"":6161.100000023842}]","","","","","","","","","","","","","","","","","","","","","","",""
"","","","","","two-step-trial","4","71598","0.0-5.0-0.0","","","","","[0,1]","0","0","1856.8999999761581","1","0","[0,1]","0","0","887.5","0","[""#955db9"",""#48a782""]","[""#5f6f81"",""#7f5d5d""]","[1536,864]","1","1","[0.412,0.317,0.453,0.743]","2","0","false","","",""
"","","","","","two-step-trial","5","74793","0.0-6.0-0.0","","","","","[0,1]","0","0","764.1999999284744","1","0","[0,1]","1","1","402.1999999284744","0","[""#955db9"",""#48a782""]","[""#5f6f81"",""#7f5d5d""]","[1536,864]","1","2","[0.402,0.305,0.461,0.702]","2","0","false","","",""
"","","","","","two-step-trial","6","77652","0.0-7.0-0.0","","","","","[0,1]","1","1","544.1000000238419","1","1","[2,3]","0","2","284.59999990463257","1","[""#955db9"",""#48a782""]","[""#5f6f81"",""#7f5d5d""]","[1536,864]","1","3","[0.373,0.327,0.445,0.732]","2","0","false","","",""
"","","","","","two-step-trial","7","80371","0.0-8.0-0.0","","","","","[0,1]","1","1","427.6999999284744","0","0","[0,1]","1","1","272.2999999523163","0","[""#955db9"",""#48a782""]","[""#5f6f81"",""#7f5d5d""]","[1536,864]","1","4","[0.381,0.303,0.418,0.736]","2","0","false","","",""
"","","","","","two-step-trial","8","83206","0.0-9.0-0.0","","","","","[0,1]","1","1","312.10000002384186","1","1","[2,3]","1","3","489.60000002384186","1","[""#955db9"",""#48a782""]","[""#5f6f81"",""#7f5d5d""]","[1536,864]","1","5","[0.366,0.363,0.401,0.709]","2","0","false","","",""
"","","","","","two-step-trial","9","85835","0.0-10.0-0.0","","","","","[0,1]","1","1","263.1999999284744","1","1","[2,3]","0","2","335.2000000476837","0","[""#955db9"",""#48a782""]","[""#5f6f81"",""#7f5d5d""]","[1536,864]","1","6","[0.393,0.368,0.383,0.711]","2","0","false","","",""
"","","","","","two-step-trial","10","88301","0.0-11.0-0.0","","","","","[0,1]","1","1","202","1","1","[2,3]","0","2","229.89999997615814","0","[""#955db9"",""#48a782""]","[""#5f6f81"",""#7f5d5d""]","[1536,864]","1","7","[0.4,0.405,0.425,0.678]","2","0","false","","",""
"","","","","","two-step-trial","11","90733","0.0-12.0-0.0","","","","","[0,1]","1","1","264.39999997615814","1","1","[2,3]","1","3","128.19999992847443","0","[""#955db9"",""#48a782""]","[""#5f6f81"",""#7f5d5d""]","[1536,864]","1","8","[0.383,0.388,0.415,0.699]","2","0","false","","",""
"","","","","","two-step-trial","12","93117","0.0-13.0-0.0","","","","","[0,1]","1","1","120.70000004768372","1","1","[2,3]","0","2","225.29999995231628","0","[""#955db9"",""#48a782""]","[""#5f6f81"",""#7f5d5d""]","[1536,864]","1","9","[0.347,0.439,0.405,0.713]","2","0","false","","",""
"","","","","","two-step-trial","13","95804","0.0-14.0-0.0","","","","","[0,1]","1","1","382","0","0","[0,1]","0","0","278.10000002384186","1","[""#955db9"",""#48a782""]","[""#5f6f81"",""#7f5d5d""]","[1536,864]","1","10","[0.367,0.459,0.46,0.731]","2","0","false","","",""
"","","","","","two-step-trial","14","98228","0.0-15.0-0.0","","","","","[0,1]","0","0","105.10000002384186","1","0","[0,1]","0","0","285.7000000476837","1","[""#955db9"",""#48a782""]","[""#5f6f81"",""#7f5d5d""]","[1536,864]","1","11","[0.397,0.451,0.461,0.701]","2","0","false","","",""
"","","","","","two-step-trial","15","100999","0.0-16.0-0.0","","","","","[0,1]","0","0","407.40000009536743","1","0","[0,1]","0","0","327.10000002384186","0","[""#955db9"",""#48a782""]","[""#5f6f81"",""#7f5d5d""]","[1536,864]","1","12","[0.357,0.426,0.459,0.707]","2","0","false","","",""
"","","","","","two-step-trial","16","103979","0.0-17.0-0.0","","","","","[0,1]","0","0","480.60000002384186","0","1","[2,3]","0","2","456.2999999523163","1","[""#955db9"",""#48a782""]","[""#5f6f81"",""#7f5d5d""]","[1536,864]","1","13","[0.337,0.398,0.428,0.721]","2","0","false","","",""
"","","","","","two-step-trial","17","119010","0.0-18.0-0.0","","","","","[0,1]","null","null","null","1","null","[0,1]","null","null","null","null","[""#955db9"",""#48a782""]","[""#5f6f81"",""#7f5d5d""]","[1536,864]","1","14","[0.283,0.408,0.384,0.719]","2","0","true","","",""
"","","","","","two-step-trial","18","121506","0.0-18.1-0.1","","","","","[0,1]","0","0","33","1","0","[0,1]","0","0","434.60000002384186","1","[""#955db9"",""#48a782""]","[""#5f6f81"",""#7f5d5d""]","[1536,864]","1","14","[0.283,0.408,0.384,0.719]","2","0","false","","",""
"","","","","","two-step-trial","19","124027","0.0-19.0-0.0","","","","","[0,1]","0","0","210.5","1","0","[0,1]","0","0","290.60000002384186","0","[""#955db9"",""#48a782""]","[""#5f6f81"",""#7f5d5d""]","[1536,864]","1","15","[0.295,0.37,0.375,0.738]","2","0","false","","",""
"","","","","","two-step-trial","20","126456","0.0-20.0-0.0","","","","","[0,1]","0","0","183.30000007152557","1","0","[0,1]","0","0","217.5","0","[""#955db9"",""#48a782""]","[""#5f6f81"",""#7f5d5d""]","[1536,864]","1","16","[0.305,0.343,0.325,0.713]","2","0","false","","",""
"","","","","","two-step-trial","21","128928","0.0-21.0-0.0","","","","","[0,1]","0","0","192.89999997615814","0","1","[2,3]","0","2","258.10000002384186","0","[""#955db9"",""#48a782""]","[""#5f6f81"",""#7f5d5d""]","[1536,864]","1","17","[0.305,0.313,0.334,0.705]","2","0","false","","",""
"","","","","","two-step-trial","22","131473","0.0-22.0-0.0","","","","","[0,1]","0","0","17.200000047683716","0","1","[2,3]","1","3","503.39999997615814","1","[""#955db9"",""#48a782""]","[""#5f6f81"",""#7f5d5d""]","[1536,864]","1","18","[0.316,0.314,0.353,0.728]","2","0","false","","",""
"","","","","","two-step-trial","23","134056","0.0-23.0-0.0","","","","","[0,1]","1","1","300.8000000715256","1","1","[2,3]","1","3","257.89999997615814","1","[""#955db9"",""#48a782""]","[""#5f6f81"",""#7f5d5d""]","[1536,864]","1","19","[0.317,0.335,0.368,0.745]","2","0","false","","",""
"","","","","","two-step-trial","24","136406","0.0-24.0-0.0","","","","","[0,1]","1","1","15.199999928474426","1","1","[2,3]","1","3","303.2999999523163","0","[""#955db9"",""#48a782""]","[""#5f6f81"",""#7f5d5d""]","[1536,864]","1","20","[0.307,0.313,0.421,0.737]","2","0","false","","",""
"","","","","","two-step-trial","25","138989","0.0-25.0-0.0","","","","","[0,1]","1","1","292.2999999523163","0","0","[0,1]","1","1","256.8000000715256","0","[""#955db9"",""#48a782""]","[""#5f6f81"",""#7f5d5d""]","[1536,864]","1","21","[0.31,0.305,0.401,0.745]","2","0","false","","",""
"","","","","","two-step-trial","26","141496","0.0-26.0-0.0","","","","","[0,1]","1","1","186.89999997615814","1","1","[2,3]","1","3","294","1","[""#955db9"",""#48a782""]","[""#5f6f81"",""#7f5d5d""]","[1536,864]","1","22","[0.326,0.31,0.391,0.735]","2","0","false","","",""
"","","","","","two-step-trial","27","144112","0.0-27.0-0.0","","","","","[0,1]","1","1","127.29999995231628","1","1","[2,3]","1","3","462.89999997615814","1","[""#955db9"",""#48a782""]","[""#5f6f81"",""#7f5d5d""]","[1536,864]","1","23","[0.331,0.302,0.379,0.741]","2","0","false","","",""
"","","","","","two-step-trial","28","146601","0.0-28.0-0.0","","","","","[0,1]","1","1","49.39999997615814","1","1","[2,3]","1","3","412","0","[""#955db9"",""#48a782""]","[""#5f6f81"",""#7f5d5d""]","[1536,864]","1","24","[0.358,0.323,0.393,0.738]","2","0","false","","",""
"","","","","","two-step-trial","29","149105","0.0-29.0-0.0","","","","","[0,1]","1","1","51.700000047683716","1","1","[2,3]","1","3","416","1","[""#955db9"",""#48a782""]","[""#5f6f81"",""#7f5d5d""]","[1536,864]","1","25","[0.342,0.299,0.368,0.724]","2","0","false","","",""
"","","","","","two-step-trial","30","151602","0.0-30.0-0.0","","","","","[0,1]","1","1","69.10000002384186","1","1","[2,3]","1","3","398","1","[""#955db9"",""#48a782""]","[""#5f6f81"",""#7f5d5d""]","[1536,864]","1","26","[0.362,0.294,0.373,0.738]","2","0","false","","",""
"","","","","","two-step-trial","31","154400","0.0-31.0-0.0","","","","","[0,1]","1","1","446.39999997615814","0","0","[0,1]","1","1","321.10000002384186","0","[""#955db9"",""#48a782""]","[""#5f6f81"",""#7f5d5d""]","[1536,864]","1","27","[0.332,0.286,0.389,0.683]","2","0","false","","",""
"","","","","","two-step-trial","32","157117","0.0-32.0-0.0","","","","","[0,1]","1","1","384.2000000476837","1","1","[2,3]","1","3","302.39999997615814","1","[""#955db9"",""#48a782""]","[""#5f6f81"",""#7f5d5d""]","[1536,864]","1","28","[0.34,0.303,0.383,0.689]","2","0","false","","",""
"","","","","","two-step-trial","33","159929","0.0-33.0-0.0","","","","","[0,1]","1","1","224.89999997615814","0","0","[0,1]","0","0","556.3999999761581","0","[""#955db9"",""#48a782""]","[""#5f6f81"",""#7f5d5d""]","[1536,864]","1","29","[0.317,0.302,0.385,0.679]","2","0","false","","",""
"","","","","","two-step-trial","34","162547","0.0-34.0-0.0","","","","","[0,1]","1","1","301.5","1","1","[2,3]","1","3","286.1999999284744","1","[""#955db9"",""#48a782""]","[""#5f6f81"",""#7f5d5d""]","[1536,864]","1","30","[0.353,0.346,0.414,0.681]","2","0","false","","",""
"","","","","","two-step-trial","35","165663","0.0-35.0-0.0","","","","","[0,1]","1","1","325.2000000476837","0","0","[0,1]","0","0","767","0","[""#955db9"",""#48a782""]","[""#5f6f81"",""#7f5d5d""]","[1536,864]","1","31","[0.325,0.331,0.414,0.647]","2","0","false","","",""
"","","","","","two-step-trial","36","168632","0.0-36.0-0.0","","","","","[0,1]","1","1","696.7000000476837","1","1","[2,3]","1","3","243.89999997615814","1","[""#955db9"",""#48a782""]","[""#5f6f81"",""#7f5d5d""]","[1536,864]","1","32","[0.328,0.33,0.383,0.663]","2","0","false","","",""
"","","","","","two-step-trial","37","171276","0.0-37.0-0.0","","","","","[0,1]","1","1","253.80000007152557","1","1","[2,3]","1","3","367.89999997615814","1","[""#955db9"",""#48a782""]","[""#5f6f81"",""#7f5d5d""]","[1536,864]","1","33","[0.322,0.332,0.362,0.633]","2","0","false","","",""
"","","","","","two-step-trial","38","174030","0.0-38.0-0.0","","","","","[0,1]","1","1","394.7000000476837","1","1","[2,3]","1","3","334.2999999523163","0","[""#955db9"",""#48a782""]","[""#5f6f81"",""#7f5d5d""]","[1536,864]","1","34","[0.322,0.307,0.363,0.617]","2","0","false","","",""
"","","","","","two-step-trial","39","177163","0.0-39.0-0.0","","","","","[0,1]","1","1","293.5","0","0","[0,1]","0","0","803.5999999046326","1","[""#955db9"",""#48a782""]","[""#5f6f81"",""#7f5d5d""]","[1536,864]","1","35","[0.297,0.336,0.333,0.65]","2","0","false","","",""
"","","","","","two-step-trial","40","179912","0.0-40.0-0.0","","","","","[0,1]","1","1","416.5","1","1","[2,3]","1","3","306.6999999284744","1","[""#955db9"",""#48a782""]","[""#5f6f81"",""#7f5d5d""]","[1536,864]","1","36","[0.326,0.343,0.331,0.633]","2","0","false","","",""
"","","","","","two-step-trial","41","182716","0.0-41.0-0.0","","","","","[0,1]","1","1","388.59999990463257","1","1","[2,3]","1","3","387.7000000476837","1","[""#955db9"",""#48a782""]","[""#5f6f81"",""#7f5d5d""]","[1536,864]","1","37","[0.318,0.324,0.327,0.612]","2","0","false","","",""
"","","","","","two-step-trial","42","186612","0.0-42.0-0.0","","","","","[0,1]","1","1","409.39999997615814","1","1","[2,3]","1","3","1452.2000000476837","0","[""#955db9"",""#48a782""]","[""#5f6f81"",""#7f5d5d""]","[1536,864]","1","38","[0.304,0.324,0.319,0.591]","2","0","false","","",""
"","","","","","two-step-trial","43","190103","0.0-43.0-0.0","","","","","[0,1]","1","1","695.4000000953674","0","0","[0,1]","0","0","757.7000000476837","1","[""#955db9"",""#48a782""]","[""#5f6f81"",""#7f5d5d""]","[1536,864]","1","39","[0.283,0.362,0.351,0.561]","2","0","false","","",""
"","","","","","two-step-trial","44","194324","0.0-44.0-0.0","","","","","[0,1]","1","1","670.2999999523163","1","1","[2,3]","1","3","1513.7999999523163","1","[""#955db9"",""#48a782""]","[""#5f6f81"",""#7f5d5d""]","[1536,864]","1","40","[0.295,0.387,0.331,0.546]","2","0","false","","",""
"","","","","","two-step-trial","45","197675","0.0-45.0-0.0","","","","","[0,1]","1","1","520.2000000476837","0","0","[0,1]","0","0","801.1999999284744","1","[""#955db9"",""#48a782""]","[""#5f6f81"",""#7f5d5d""]","[1536,864]","1","41","[0.293,0.385,0.33,0.584]","2","0","false","","",""
"","","","","","two-step-trial","46","201589","0.0-46.0-0.0","","","","","[0,1]","1","1","1314.8000000715256","1","1","[2,3]","1","3","569.3999999761581","0","[""#955db9"",""#48a782""]","[""#5f6f81"",""#7f5d5d""]","[1536,864]","1","42","[0.304,0.383,0.318,0.562]","2","0","false","","",""
"","","","","","two-step-trial","47","204704","0.0-47.0-0.0","","","","","[0,1]","1","1","527.1000000238419","1","1","[2,3]","1","3","555.8999999761581","1","[""#955db9"",""#48a782""]","[""#5f6f81"",""#7f5d5d""]","[1536,864]","1","43","[0.318,0.398,0.315,0.576]","2","0","false","","",""
"","","","","","two-step-trial","48","207913","0.0-48.0-0.0","","","","","[0,1]","1","1","382.39999997615814","1","1","[2,3]","1","3","795.4000000953674","1","[""#955db9"",""#48a782""]","[""#5f6f81"",""#7f5d5d""]","[1536,864]","1","44","[0.321,0.371,0.348,0.616]","2","0","false","","",""
"","","","","","two-step-trial","49","210579","0.0-49.0-0.0","","","","","[0,1]","1","1","316","1","1","[2,3]","1","3","325.7000000476837","1","[""#955db9"",""#48a782""]","[""#5f6f81"",""#7f5d5d""]","[1536,864]","1","45","[0.319,0.418,0.367,0.598]","2","0","false","","",""
"","","","","","two-step-trial","50","213103","0.0-50.0-0.0","","","","","[0,1]","1","1","139.89999997615814","1","1","[2,3]","1","3","356","0","[""#955db9"",""#48a782""]","[""#5f6f81"",""#7f5d5d""]","[1536,864]","1","46","[0.326,0.44,0.366,0.588]","2","0","false","","",""
"","","","","","two-step-trial","51","216022","0.0-51.0-0.0","","","","","[0,1]","1","1","100","1","1","[2,3]","1","3","783.2999999523163","1","[""#955db9"",""#48a782""]","[""#5f6f81"",""#7f5d5d""]","[1536,864]","1","47","[0.315,0.46,0.378,0.597]","2","0","false","","",""
"","","","","","two-step-trial","52","218703","0.0-52.0-0.0","","","","","[0,1]","1","1","110.60000002384186","1","1","[2,3]","1","3","540","0","[""#955db9"",""#48a782""]","[""#5f6f81"",""#7f5d5d""]","[1536,864]","1","48","[0.281,0.476,0.36,0.571]","2","0","false","","",""
"","","","","","two-step-trial","53","221417","0.0-53.0-0.0","","","","","[0,1]","1","1","94.60000002384186","0","0","[0,1]","0","0","599.3000000715256","0","[""#955db9"",""#48a782""]","[""#5f6f81"",""#7f5d5d""]","[1536,864]","1","49","[0.254,0.439,0.383,0.579]","2","0","false","","",""
"","","","","","two-step-trial","54","223955","0.0-54.0-0.0","","","","","[0,1]","1","1","246.20000004768372","1","1","[2,3]","1","3","255.30000007152557","0","[""#955db9"",""#48a782""]","[""#5f6f81"",""#7f5d5d""]","[1536,864]","1","50","[0.303,0.471,0.392,0.592]","2","0","false","","",""
"","","","","","two-step-trial","55","226384","0.0-55.0-0.0","","","","","[0,1]","0","0","45.89999997615814","1","0","[0,1]","1","1","346.5","0","[""#955db9"",""#48a782""]","[""#5f6f81"",""#7f5d5d""]","[1536,864]","1","51","[0.274,0.41,0.377,0.587]","2","0","false","","",""
"","","","","","two-step-trial","56","228867","0.0-56.0-0.0","","","","","[0,1]","0","0","187.80000007152557","1","0","[0,1]","0","0","272.60000002384186","0","[""#955db9"",""#48a782""]","[""#5f6f81"",""#7f5d5d""]","[1536,864]","1","52","[0.29,0.413,0.363,0.572]","2","0","false","","",""
"","","","","","two-step-trial","57","231182","0.0-57.0-0.0","","","","","[0,1]","0","0","0.30000007152557373","0","1","[2,3]","0","2","284.5","0","[""#955db9"",""#48a782""]","[""#5f6f81"",""#7f5d5d""]","[1536,864]","1","53","[0.292,0.425,0.318,0.522]","2","0","false","","",""
"","","","","","two-step-trial","58","233432","0.0-58.0-0.0","","","","","[0,1]","0","0","15.800000071525574","1","0","[0,1]","0","0","199.79999995231628","0","[""#955db9"",""#48a782""]","[""#5f6f81"",""#7f5d5d""]","[1536,864]","1","54","[0.284,0.449,0.332,0.552]","2","0","false","","",""
"","","","","","two-step-trial","59","236547","0.0-59.0-0.0","","","","","[0,1]","0","0","716.1000000238419","0","1","[2,3]","0","2","371.10000002384186","0","[""#955db9"",""#48a782""]","[""#5f6f81"",""#7f5d5d""]","[1536,864]","1","55","[0.253,0.41,0.344,0.579]","2","0","false","","",""
"","","","","","two-step-trial","60","239515","0.0-60.0-0.0","","","","","[0,1]","0","0","439.10000002384186","1","0","[0,1]","0","0","501.2999999523163","0","[""#955db9"",""#48a782""]","[""#5f6f81"",""#7f5d5d""]","[1536,864]","1","56","[0.277,0.408,0.373,0.526]","2","0","false","","",""
"","","","","","two-step-trial","61","242001","0.0-61.0-0.0","","","","","[0,1]","0","0","69.70000004768372","1","0","[0,1]","1","1","393.89999997615814","0","[""#955db9"",""#48a782""]","[""#5f6f81"",""#7f5d5d""]","[1536,864]","1","57","[0.252,0.418,0.356,0.521]","2","0","false","","",""
"","","","","","two-step-trial","62","244546","0.0-62.0-0.0","","","","","[0,1]","0","0","264.7999999523163","1","0","[0,1]","1","1","257","1","[""#955db9"",""#48a782""]","[""#5f6f81"",""#7f5d5d""]","[1536,864]","1","58","[0.282,0.462,0.395,0.504]","2","0","false","","",""
"","","","","","two-step-trial","63","246806","0.0-63.0-0.0","","","","","[0,1]","0","0","12.899999976158142","0","1","[2,3]","1","3","217.70000004768372","1","[""#955db9"",""#48a782""]","[""#5f6f81"",""#7f5d5d""]","[1536,864]","1","59","[0.297,0.475,0.39,0.498]","2","0","false","","",""
"","","","","","two-step-trial","64","249449","0.0-64.0-0.0","","","","","[0,1]","1","1","250.60000002384186","1","1","[2,3]","1","3","379.10000002384186","1","[""#955db9"",""#48a782""]","[""#5f6f81"",""#7f5d5d""]","[1536,864]","1","60","[0.295,0.463,0.364,0.52]","2","0","false","","",""
"","","","","","two-step-trial","65","252081","0.0-65.0-0.0","","","","","[0,1]","1","1","274.5","1","1","[2,3]","1","3","339.7999999523163","1","[""#955db9"",""#48a782""]","[""#5f6f81"",""#7f5d5d""]","[1536,864]","1","61","[0.295,0.433,0.355,0.543]","2","0","false","","",""
"","","","","","two-step-trial","66","254663","0.0-66.0-0.0","","","","","[0,1]","1","1","273.7000000476837","0","0","[0,1]","1","1","282.5","0","[""#955db9"",""#48a782""]","[""#5f6f81"",""#7f5d5d""]","[1536,864]","1","62","[0.307,0.43,0.353,0.543]","2","0","false","","",""
"","","","","","two-step-trial","67","257271","0.0-67.0-0.0","","","","","[0,1]","1","1","277.60000002384186","1","1","[2,3]","1","3","311.60000002384186","1","[""#955db9"",""#48a782""]","[""#5f6f81"",""#7f5d5d""]","[1536,864]","1","63","[0.353,0.426,0.367,0.529]","2","0","false","","",""
"","","","","","two-step-trial","68","260346","0.0-68.0-0.0","","","","","[0,1]","1","1","274.89999997615814","0","0","[0,1]","0","0","774.7999999523163","0","[""#955db9"",""#48a782""]","[""#5f6f81"",""#7f5d5d""]","[1536,864]","1","64","[0.37,0.432,0.33,0.47]","2","0","false","","",""
"","","","","","two-step-trial","69","263616","0.0-69.0-0.0","","","","","[0,1]","1","1","498","1","1","[2,3]","1","3","751.1000000238419","0","[""#955db9"",""#48a782""]","[""#5f6f81"",""#7f5d5d""]","[1536,864]","1","65","[0.377,0.393,0.348,0.501]","2","0","false","","",""
"","","","","","two-step-trial","70","266952","0.0-70.0-0.0","","","","","[0,1]","1","1","536.8999999761581","1","1","[2,3]","1","3","774.6000000238419","0","[""#955db9"",""#48a782""]","[""#5f6f81"",""#7f5d5d""]","[1536,864]","1","66","[0.345,0.371,0.258,0.459]","2","0","false","","",""
"","","","","","two-step-trial","71","270037","0.0-71.0-0.0","","","","","[0,1]","1","1","281.89999997615814","0","0","[0,1]","0","0","786.2000000476837","0","[""#955db9"",""#48a782""]","[""#5f6f81"",""#7f5d5d""]","[1536,864]","1","67","[0.332,0.355,0.256,0.426]","2","0","false","","",""
"","","","","","two-step-trial","72","275205","0.0-72.0-0.0","","","","","[0,1]","1","1","450.7999999523163","0","0","[0,1]","0","0","2687.0999999046326","1","[""#955db9"",""#48a782""]","[""#5f6f81"",""#7f5d5d""]","[1536,864]","1","68","[0.331,0.398,0.311,0.426]","2","0","false","","",""
"","","","","","two-step-trial","73","280389","0.0-73.0-0.0","","","","","[0,1]","1","1","312.8000000715256","1","1","[2,3]","1","3","2827.7000000476837","1","[""#955db9"",""#48a782""]","[""#5f6f81"",""#7f5d5d""]","[1536,864]","1","69","[0.325,0.426,0.326,0.384]","2","0","false","","",""
"","","","","","two-step-trial","74","284369","0.0-74.0-0.0","","","","","[0,1]","1","1","646.8999999761581","0","0","[0,1]","0","0","1304.2000000476837","1","[""#955db9"",""#48a782""]","[""#5f6f81"",""#7f5d5d""]","[1536,864]","1","70","[0.293,0.475,0.305,0.375]","2","0","false","","",""
"","","","","","two-step-trial","75","287519","0.0-75.0-0.0","","","","","[0,1]","1","1","289.5","1","1","[2,3]","1","3","828.8999999761581","0","[""#955db9"",""#48a782""]","[""#5f6f81"",""#7f5d5d""]","[1536,864]","1","71","[0.268,0.51,0.303,0.365]","2","0","false","","",""
"","","","","","two-step-trial","76","290126","0.0-76.0-0.0","","","","","[0,1]","1","1","248.89999997615814","1","1","[2,3]","1","3","328.89999997615814","1","[""#955db9"",""#48a782""]","[""#5f6f81"",""#7f5d5d""]","[1536,864]","1","72","[0.294,0.507,0.326,0.359]","2","0","false","","",""
"","","","","","two-step-trial","77","292902","0.0-77.0-0.0","","","","","[0,1]","1","1","312.09999990463257","1","1","[2,3]","1","3","437.89999997615814","0","[""#955db9"",""#48a782""]","[""#5f6f81"",""#7f5d5d""]","[1536,864]","1","73","[0.296,0.541,0.313,0.367]","2","0","false","","",""
"","","","","","two-step-trial","78","295634","0.0-78.0-0.0","","","","","[0,1]","1","1","414.39999997615814","1","1","[2,3]","1","3","291.2000000476837","1","[""#955db9"",""#48a782""]","[""#5f6f81"",""#7f5d5d""]","[1536,864]","1","74","[0.282,0.491,0.339,0.374]","2","0","false","","",""
"","","","","","two-step-trial","79","298203","0.0-79.0-0.0","","","","","[0,1]","1","1","254.10000002384186","1","1","[2,3]","1","3","287.89999997615814","0","[""#955db9"",""#48a782""]","[""#5f6f81"",""#7f5d5d""]","[1536,864]","1","75","[0.336,0.513,0.333,0.367]","2","0","false","","",""
"","","","","","two-step-instructions","80","301278","0.0-80.0","3064.8000000715256","","","[{""page_index"":0,""viewing_time"":278.90000009536743},{""page_index"":1,""viewing_time"":2785.0999999046326}]","","","","","","","","","","","","","","","","","","","","","","",""
"","","","","","two-step-trial","81","306033","0.0-81.0-0.0","","","","","[0,1]","0","0","1673.2999999523163","1","0","[0,1]","0","0","1053.5","0","[""#955db9"",""#48a782""]","[""#5f6f81"",""#7f5d5d""]","[1536,864]","1","76","[0.344,0.538,0.274,0.339]","2","0","false","","",""
"","","","","","two-step-trial","82","308942","0.0-82.0-0.0","","","","","[0,1]","0","0","146.60000002384186","0","1","[2,3]","1","3","736.8000000715256","1","[""#955db9"",""#48a782""]","[""#5f6f81"",""#7f5d5d""]","[1536,864]","1","77","[0.322,0.54,0.262,0.343]","2","0","false","","",""
"","","","","","two-step-trial","83","312895","0.0-83.0-0.0","","","","","[0,1]","1","1","98","0","0","[0,1]","0","0","1839.6000000238419","0","[""#955db9"",""#48a782""]","[""#5f6f81"",""#7f5d5d""]","[1536,864]","1","78","[0.351,0.561,0.265,0.342]","2","0","false","","",""
"","","","","","two-step-trial","84","316543","0.0-84.0-0.0","","","","","[0,1]","1","1","685.2999999523163","1","1","[2,3]","1","3","937.5","1","[""#955db9"",""#48a782""]","[""#5f6f81"",""#7f5d5d""]","[1536,864]","1","79","[0.335,0.543,0.286,0.35]","2","0","false","","",""
"","","","","","two-step-trial","85","320692","0.0-85.0-0.0","","","","","[0,1]","1","1","1020.8999999761581","1","1","[2,3]","1","3","1103.8999999761581","1","[""#955db9"",""#48a782""]","[""#5f6f81"",""#7f5d5d""]","[1536,864]","1","80","[0.328,0.536,0.289,0.405]","2","0","false","","",""
"","","","","","two-step-trial","86","324859","0.0-86.0-0.0","","","","","[0,1]","1","1","1661.9000000953674","0","0","[0,1]","1","1","457.7999999523163","1","[""#955db9"",""#48a782""]","[""#5f6f81"",""#7f5d5d""]","[1536,864]","1","81","[0.286,0.534,0.265,0.391]","2","0","false","","",""
"","","","","","two-step-trial","87","327707","0.0-87.0-0.0","","","","","[0,1]","1","1","403.5","1","1","[2,3]","1","3","411.60000002384186","1","[""#955db9"",""#48a782""]","[""#5f6f81"",""#7f5d5d""]","[1536,864]","1","82","[0.307,0.553,0.256,0.373]","2","0","false","","",""
"","","","","","two-step-trial","88","330148","0.0-88.0-0.0","","","","","[0,1]","1","1","0.30000007152557373","1","1","[2,3]","1","3","413.59999990463257","1","[""#955db9"",""#48a782""]","[""#5f6f81"",""#7f5d5d""]","[1536,864]","1","83","[0.306,0.564,0.273,0.38]","2","0","false","","",""
"","","","","","two-step-trial","89","332410","0.0-89.0-0.0","","","","","[0,1]","1","1","0.3999999761581421","0","0","[0,1]","1","1","237.69999992847443","0","[""#955db9"",""#48a782""]","[""#5f6f81"",""#7f5d5d""]","[1536,864]","1","84","[0.263,0.564,0.275,0.397]","2","0","false","","",""
"","","","","","two-step-trial","90","335458","0.0-90.0-0.0","","","","","[0,1]","1","1","568.0999999046326","1","1","[2,3]","1","3","455","0","[""#955db9"",""#48a782""]","[""#5f6f81"",""#7f5d5d""]","[1536,864]","1","85","[0.295,0.592,0.3,0.406]","2","0","false","","",""
"","","","","","two-step-trial","91","338755","0.0-91.0-0.0","","","","","[0,1]","1","1","206.89999997615814","1","1","[2,3]","1","3","1058.3000000715256","1","[""#955db9"",""#48a782""]","[""#5f6f81"",""#7f5d5d""]","[1536,864]","1","86","[0.266,0.571,0.324,0.417]","2","0","false","","",""
"","","","","","two-step-trial","92","341661","0.0-92.0-0.0","","","","","[0,1]","1","1","354","0","0","[0,1]","1","1","518.7000000476837","0","[""#955db9"",""#48a782""]","[""#5f6f81"",""#7f5d5d""]","[1536,864]","1","87","[0.25,0.532,0.345,0.39]","2","0","false","","",""
"","","","","","two-step-trial","93","344320","0.0-93.0-0.0","","","","","[0,1]","1","1","230.10000002384186","0","0","[0,1]","0","0","393.60000002384186","0","[""#955db9"",""#48a782""]","[""#5f6f81"",""#7f5d5d""]","[1536,864]","1","88","[0.258,0.529,0.341,0.378]","2","0","false","","",""
"","","","","","two-step-trial","94","346886","0.0-94.0-0.0","","","","","[0,1]","1","1","280.39999997615814","0","0","[0,1]","1","1","259.89999997615814","0","[""#955db9"",""#48a782""]","[""#5f6f81"",""#7f5d5d""]","[1536,864]","1","89","[0.266,0.533,0.306,0.41]","2","0","false","","",""
"","","","","","two-step-trial","95","349436","0.0-95.0-0.0","","","","","[0,1]","1","1","248","1","1","[2,3]","1","3","258.2999999523163","0","[""#955db9"",""#48a782""]","[""#5f6f81"",""#7f5d5d""]","[1536,864]","1","90","[0.254,0.554,0.297,0.382]","2","0","false","","",""
"","","","","","two-step-trial","96","352519","0.0-96.0-0.0","","","","","[0,1]","0","0","591.8000000715256","1","0","[0,1]","0","0","476.2000000476837","1","[""#955db9"",""#48a782""]","[""#5f6f81"",""#7f5d5d""]","[1536,864]","1","91","[0.265,0.543,0.313,0.38]","2","0","false","","",""
"","","","","","two-step-trial","97","354878","0.0-97.0-0.0","","","","","[0,1]","0","0","63.89999997615814","1","0","[0,1]","0","0","258.6999999284744","1","[""#955db9"",""#48a782""]","[""#5f6f81"",""#7f5d5d""]","[1536,864]","1","92","[0.259,0.54,0.279,0.363]","2","0","false","","",""
"","","","","","two-step-trial","98","357384","0.0-98.0-0.0","","","","","[0,1]","0","0","201.70000004768372","1","0","[0,1]","0","0","269.3000000715256","0","[""#955db9"",""#48a782""]","[""#5f6f81"",""#7f5d5d""]","[1536,864]","1","93","[0.251,0.565,0.296,0.35]","2","0","false","","",""
"","","","","","two-step-trial","99","359851","0.0-99.0-0.0","","","","","[0,1]","0","0","233","0","1","[2,3]","0","2","201.29999995231628","0","[""#955db9"",""#48a782""]","[""#5f6f81"",""#7f5d5d""]","[1536,864]","1","94","[0.276,0.543,0.275,0.322]","2","0","false","","",""
"","","","","","two-step-trial","100","362386","0.0-100.0-0.0","","","","","[0,1]","0","0","242","0","1","[2,3]","0","2","251.40000009536743","1","[""#955db9"",""#48a782""]","[""#5f6f81"",""#7f5d5d""]","[1536,864]","1","95","[0.317,0.539,0.285,0.291]","2","0","false","","",""
"","","","","","two-step-trial","101","365753","0.0-101.0-0.0","","","","","[0,1]","0","0","251.90000009536743","0","1","[2,3]","1","3","1094.2999999523163","0","[""#955db9"",""#48a782""]","[""#5f6f81"",""#7f5d5d""]","[1536,864]","1","96","[0.325,0.583,0.251,0.276]","2","0","false","","",""
"","","","","","two-step-trial","102","368415","0.0-102.0-0.0","","","","","[0,1]","0","0","219.60000002384186","1","0","[0,1]","0","0","421.10000002384186","0","[""#955db9"",""#48a782""]","[""#5f6f81"",""#7f5d5d""]","[1536,864]","1","97","[0.352,0.597,0.278,0.336]","2","0","false","","",""
"","","","","","two-step-trial","103","371007","0.0-103.0-0.0","","","","","[0,1]","0","0","273.60000002384186","1","0","[0,1]","0","0","298.39999997615814","0","[""#955db9"",""#48a782""]","[""#5f6f81"",""#7f5d5d""]","[1536,864]","1","98","[0.369,0.601,0.316,0.324]","2","0","false","","",""
"","","","","","two-step-trial","104","373464","0.0-104.0-0.0","","","","","[0,1]","0","0","161.29999995231628","1","0","[0,1]","0","0","269.2000000476837","0","[""#955db9"",""#48a782""]","[""#5f6f81"",""#7f5d5d""]","[1536,864]","1","99","[0.338,0.574,0.29,0.307]","2","0","false","","",""
"","","","","","two-step-trial","105","375929","0.0-105.0-0.0","","","","","[0,1]","0","0","183.10000002384186","1","0","[0,1]","0","0","243.89999997615814","0","[""#955db9"",""#48a782""]","[""#5f6f81"",""#7f5d5d""]","[1536,864]","1","100","[0.348,0.567,0.294,0.264]","2","0","false","","",""
"","","","","","two-step-trial","106","378196","0.0-106.0-0.0","","","","","[0,1]","0","0","98.39999997615814","1","0","[0,1]","1","1","151.09999990463257","1","[""#955db9"",""#48a782""]","[""#5f6f81"",""#7f5d5d""]","[1536,864]","1","101","[0.332,0.536,0.335,0.261]","2","0","false","","",""
"","","","","","two-step-trial","107","380478","0.0-107.0-0.0","","","","","[0,1]","0","0","201.70000004768372","0","1","[2,3]","1","3","47","0","[""#955db9"",""#48a782""]","[""#5f6f81"",""#7f5d5d""]","[1536,864]","1","102","[0.331,0.521,0.359,0.268]","2","0","false","","",""
"","","","","","two-step-trial","108","382998","0.0-108.0-0.0","","","","","[0,1]","0","0","222.09999990463257","1","0","[0,1]","1","1","260.10000002384186","1","[""#955db9"",""#48a782""]","[""#5f6f81"",""#7f5d5d""]","[1536,864]","1","103","[0.317,0.518,0.371,0.309]","2","0","false","","",""
"","","","","","two-step-trial","109","385576","0.0-109.0-0.0","","","","","[0,1]","0","0","102.5","0","1","[2,3]","1","3","454.5","0","[""#955db9"",""#48a782""]","[""#5f6f81"",""#7f5d5d""]","[1536,864]","1","104","[0.334,0.493,0.341,0.296]","2","0","false","","",""
"","","","","","two-step-trial","110","388477","0.0-110.0-0.0","","","","","[0,1]","0","0","259.89999997615814","1","0","[0,1]","1","1","612.2000000476837","1","[""#955db9"",""#48a782""]","[""#5f6f81"",""#7f5d5d""]","[1536,864]","1","105","[0.349,0.494,0.34,0.27]","2","0","false","","",""
"","","","","","two-step-trial","111","392679","0.0-111.0-0.0","","","","","[0,1]","0","0","1014","0","1","[2,3]","0","2","1157.7999999523163","0","[""#955db9"",""#48a782""]","[""#5f6f81"",""#7f5d5d""]","[1536,864]","1","106","[0.302,0.497,0.307,0.282]","2","0","false","","",""
"","","","","","two-step-trial","112","395525","0.0-112.0-0.0","","","","","[0,1]","0","0","434.7000000476837","1","0","[0,1]","1","1","375.60000002384186","1","[""#955db9"",""#48a782""]","[""#5f6f81"",""#7f5d5d""]","[1536,864]","1","107","[0.336,0.523,0.294,0.315]","2","0","false","","",""
"","","","","","two-step-trial","113","400391","0.0-113.0-0.0","","","","","[0,1]","0","0","697.9000000953674","0","1","[2,3]","1","3","2137.100000023842","0","[""#955db9"",""#48a782""]","[""#5f6f81"",""#7f5d5d""]","[1536,864]","1","108","[0.381,0.482,0.317,0.324]","2","0","false","","",""
"","","","","","two-step-trial","114","403458","0.0-114.0-0.0","","","","","[0,1]","0","0","347.2000000476837","1","0","[0,1]","1","1","699.1999999284744","1","[""#955db9"",""#48a782""]","[""#5f6f81"",""#7f5d5d""]","[1536,864]","1","109","[0.342,0.505,0.32,0.33]","2","0","false","","",""
"","","","","","two-step-trial","115","409872","0.0-115.0-0.0","","","","","[0,1]","0","0","3949.2000000476837","0","1","[2,3]","1","3","443.39999997615814","1","[""#955db9"",""#48a782""]","[""#5f6f81"",""#7f5d5d""]","[1536,864]","1","110","[0.337,0.526,0.318,0.349]","2","0","false","","",""
"","","","","","two-step-trial","116","413359","0.0-116.0-0.0","","","","","[0,1]","0","0","687.2000000476837","0","1","[2,3]","1","3","766.8999999761581","0","[""#955db9"",""#48a782""]","[""#5f6f81"",""#7f5d5d""]","[1536,864]","1","111","[0.374,0.551,0.269,0.35]","2","0","false","","",""
"","","","","","two-step-trial","117","416238","0.0-117.0-0.0","","","","","[0,1]","0","0","212.29999995231628","1","0","[0,1]","1","1","636.6000000238419","0","[""#955db9"",""#48a782""]","[""#5f6f81"",""#7f5d5d""]","[1536,864]","1","112","[0.355,0.517,0.255,0.331]","2","0","false","","",""
"","","","","","two-step-trial","118","420437","0.0-118.0-0.0","","","","","[0,1]","0","0","31.799999952316284","1","0","[0,1]","0","0","2134.7999999523163","1","[""#955db9"",""#48a782""]","[""#5f6f81"",""#7f5d5d""]","[1536,864]","1","113","[0.331,0.507,0.283,0.271]","2","0","false","","",""
"","","","","","two-step-trial","119","423202","0.0-119.0-0.0","","","","","[0,1]","0","0","531.6000000238419","0","1","[2,3]","0","2","200.60000002384186","1","[""#955db9"",""#48a782""]","[""#5f6f81"",""#7f5d5d""]","[1536,864]","1","114","[0.326,0.467,0.284,0.267]","2","0","false","","",""
"","","","","","two-step-trial","120","426219","0.0-120.0-0.0","","","","","[0,1]","0","0","686.1000000238419","1","0","[0,1]","1","1","304.10000002384186","1","[""#955db9"",""#48a782""]","[""#5f6f81"",""#7f5d5d""]","[1536,864]","1","115","[0.313,0.494,0.291,0.251]","2","0","false","","",""
"","","","","","two-step-trial","121","429036","0.0-121.0-0.0","","","","","[0,1]","0","0","496.5","1","0","[0,1]","1","1","290.5","0","[""#955db9"",""#48a782""]","[""#5f6f81"",""#7f5d5d""]","[1536,864]","1","116","[0.319,0.494,0.296,0.273]","2","0","false","","",""
"","","","","","two-step-trial","122","432241","0.0-122.0-0.0","","","","","[0,1]","0","0","831.1000000238419","0","1","[2,3]","1","3","344.1999999284744","0","[""#955db9"",""#48a782""]","[""#5f6f81"",""#7f5d5d""]","[1536,864]","1","117","[0.297,0.492,0.312,0.277]","2","0","false","","",""
"","","","","","two-step-trial","123","435502","0.0-123.0-0.0","","","","","[0,1]","0","0","1056.1000000238419","0","1","[2,3]","1","3","175.10000002384186","0","[""#955db9"",""#48a782""]","[""#5f6f81"",""#7f5d5d""]","[1536,864]","1","118","[0.288,0.513,0.36,0.275]","2","0","false","","",""
"","","","","","two-step-trial","124","438097","0.0-124.0-0.0","","","","","[0,1]","0","0","343.39999997615814","1","0","[0,1]","1","1","215.89999997615814","0","[""#955db9"",""#48a782""]","[""#5f6f81"",""#7f5d5d""]","[1536,864]","1","119","[0.304,0.552,0.392,0.266]","2","0","false","","",""
"","","","","","two-step-trial","125","440930","0.0-125.0-0.0","","","","","[0,1]","0","0","528.7000000476837","1","0","[0,1]","1","1","258.10000002384186","1","[""#955db9"",""#48a782""]","[""#5f6f81"",""#7f5d5d""]","[1536,864]","1","120","[0.295,0.538,0.367,0.253]","2","0","false","","",""
"","","","","","two-step-trial","126","443249","0.0-126.0-0.0","","","","","[0,1]","0","0","21.300000071525574","1","0","[0,1]","1","1","270.10000002384186","0","[""#955db9"",""#48a782""]","[""#5f6f81"",""#7f5d5d""]","[1536,864]","1","121","[0.268,0.49,0.389,0.267]","2","0","false","","",""
"","","","","","two-step-trial","127","445729","0.0-127.0-0.0","","","","","[0,1]","0","0","137.29999995231628","1","0","[0,1]","1","1","323.7999999523163","1","[""#955db9"",""#48a782""]","[""#5f6f81"",""#7f5d5d""]","[1536,864]","1","122","[0.292,0.548,0.366,0.262]","2","0","false","","",""
"","","","","","two-step-trial","128","448228","0.0-128.0-0.0","","","","","[0,1]","0","0","283.10000002384186","1","0","[0,1]","1","1","172.60000002384186","1","[""#955db9"",""#48a782""]","[""#5f6f81"",""#7f5d5d""]","[1536,864]","1","123","[0.287,0.579,0.38,0.276]","2","0","false","","",""
"","","","","","two-step-trial","129","450998","0.0-129.0-0.0","","","","","[0,1]","0","0","486.7999999523163","1","0","[0,1]","1","1","250.80000007152557","0","[""#955db9"",""#48a782""]","[""#5f6f81"",""#7f5d5d""]","[1536,864]","1","124","[0.296,0.64,0.405,0.262]","2","0","false","","",""
"","","","","","two-step-trial","130","453579","0.0-130.0-0.0","","","","","[0,1]","0","0","119.69999992847443","1","0","[0,1]","1","1","441.5","0","[""#955db9"",""#48a782""]","[""#5f6f81"",""#7f5d5d""]","[1536,864]","1","125","[0.25,0.637,0.448,0.25]","2","0","false","","",""
"","","","","","two-step-trial","131","456802","0.0-131.0-0.0","","","","","[0,1]","0","0","313.3000000715256","1","0","[0,1]","1","1","879.1000000238419","0","[""#955db9"",""#48a782""]","[""#5f6f81"",""#7f5d5d""]","[1536,864]","1","126","[0.255,0.666,0.447,0.257]","2","0","false","","",""
"","","","","","two-step-trial","132","459304","0.0-132.0-0.0","","","","","[0,1]","0","0","42.5","1","0","[0,1]","0","0","422.7000000476837","1","[""#955db9"",""#48a782""]","[""#5f6f81"",""#7f5d5d""]","[1536,864]","1","127","[0.281,0.695,0.433,0.272]","2","0","false","","",""
"","","","","","two-step-trial","133","461609","0.0-133.0-0.0","","","","","[0,1]","0","0","0.3999999761581421","1","0","[0,1]","0","0","274.1999999284744","1","[""#955db9"",""#48a782""]","[""#5f6f81"",""#7f5d5d""]","[1536,864]","1","128","[0.277,0.667,0.42,0.278]","2","0","false","","",""
"","","","","","two-step-trial","134","464025","0.0-134.0-0.0","","","","","[0,1]","0","0","0.30000007152557373","0","1","[2,3]","0","2","390.6999999284744","1","[""#955db9"",""#48a782""]","[""#5f6f81"",""#7f5d5d""]","[1536,864]","1","129","[0.318,0.661,0.46,0.294]","2","0","false","","",""
"","","","","","two-step-trial","135","466541","0.0-135.0-0.0","","","","","[0,1]","0","0","0.3999999761581421","1","0","[0,1]","0","0","481.2000000476837","0","[""#955db9"",""#48a782""]","[""#5f6f81"",""#7f5d5d""]","[1536,864]","1","130","[0.306,0.677,0.461,0.259]","2","0","false","","",""
"","","","","","two-step-trial","136","468900","0.0-136.0-0.0","","","","","[0,1]","0","0","6.700000047683716","1","0","[0,1]","0","0","325.6999999284744","0","[""#955db9"",""#48a782""]","[""#5f6f81"",""#7f5d5d""]","[1536,864]","1","131","[0.35,0.655,0.474,0.278]","2","0","false","","",""
"","","","","","two-step-trial","137","471365","0.0-137.0-0.0","","","","","[0,1]","0","0","20.100000023841858","1","0","[0,1]","0","0","407.2999999523163","0","[""#955db9"",""#48a782""]","[""#5f6f81"",""#7f5d5d""]","[1536,864]","1","132","[0.352,0.663,0.445,0.297]","2","0","false","","",""
"","","","","","two-step-trial","138","474094","0.0-138.0-0.0","","","","","[0,1]","1","1","448","0","0","[0,1]","0","0","255.60000002384186","0","[""#955db9"",""#48a782""]","[""#5f6f81"",""#7f5d5d""]","[1536,864]","1","133","[0.374,0.662,0.412,0.314]","2","0","false","","",""
"","","","","","two-step-trial","139","476755","0.0-139.0-0.0","","","","","[0,1]","1","1","207","1","1","[2,3]","0","2","423.2999999523163","1","[""#955db9"",""#48a782""]","[""#5f6f81"",""#7f5d5d""]","[1536,864]","1","134","[0.405,0.666,0.424,0.315]","2","0","false","","",""
"","","","","","two-step-trial","140","479121","0.0-140.0-0.0","","","","","[0,1]","1","1","14.300000071525574","1","1","[2,3]","0","2","324","1","[""#955db9"",""#48a782""]","[""#5f6f81"",""#7f5d5d""]","[1536,864]","1","135","[0.43,0.696,0.452,0.345]","2","0","false","","",""
"","","","","","two-step-trial","141","481835","0.0-141.0-0.0","","","","","[0,1]","1","1","409.39999997615814","1","1","[2,3]","0","2","284.6999999284744","1","[""#955db9"",""#48a782""]","[""#5f6f81"",""#7f5d5d""]","[1536,864]","1","136","[0.426,0.681,0.444,0.337]","2","0","false","","",""
"","","","","","two-step-trial","142","484256","0.0-142.0-0.0","","","","","[0,1]","1","1","90.10000002384186","0","0","[0,1]","0","0","298","0","[""#955db9"",""#48a782""]","[""#5f6f81"",""#7f5d5d""]","[1536,864]","1","137","[0.411,0.674,0.45,0.299]","2","0","false","","",""
"","","","","","two-step-trial","143","486621","0.0-143.0-0.0","","","","","[0,1]","1","1","159.20000004768372","1","1","[2,3]","0","2","169.5","0","[""#955db9"",""#48a782""]","[""#5f6f81"",""#7f5d5d""]","[1536,864]","1","138","[0.414,0.699,0.459,0.339]","2","0","false","","",""
"","","","","","two-step-trial","144","488969","0.0-144.0-0.0","","","","","[0,1]","1","1","234.60000002384186","0","0","[0,1]","0","0","91","1","[""#955db9"",""#48a782""]","[""#5f6f81"",""#7f5d5d""]","[1536,864]","1","139","[0.394,0.734,0.462,0.307]","2","0","false","","",""
"","","","","","two-step-trial","145","491566","0.0-145.0-0.0","","","","","[0,1]","1","1","302.5","1","1","[2,3]","0","2","271.6999999284744","1","[""#955db9"",""#48a782""]","[""#5f6f81"",""#7f5d5d""]","[1536,864]","1","140","[0.361,0.693,0.467,0.292]","2","0","false","","",""
"","","","","","two-step-trial","146","493954","0.0-146.0-0.0","","","","","[0,1]","1","1","47.699999928474426","1","1","[2,3]","0","2","321.6999999284744","1","[""#955db9"",""#48a782""]","[""#5f6f81"",""#7f5d5d""]","[1536,864]","1","141","[0.354,0.722,0.46,0.26]","2","0","false","","",""
"","","","","","two-step-trial","147","496826","0.0-147.0-0.0","","","","","[0,1]","1","1","449.6999999284744","1","1","[2,3]","0","2","395.60000002384186","0","[""#955db9"",""#48a782""]","[""#5f6f81"",""#7f5d5d""]","[1536,864]","1","142","[0.353,0.749,0.428,0.301]","2","0","false","","",""
"","","","","","two-step-trial","148","499281","0.0-148.0-0.0","","","","","[0,1]","1","1","81.20000004768372","0","0","[0,1]","0","0","349.1999999284744","1","[""#955db9"",""#48a782""]","[""#5f6f81"",""#7f5d5d""]","[1536,864]","1","143","[0.361,0.73,0.409,0.316]","2","0","false","","",""
"","","","","","two-step-trial","149","501680","0.0-149.0-0.0","","","","","[0,1]","1","1","49","1","1","[2,3]","0","2","303.7999999523163","1","[""#955db9"",""#48a782""]","[""#5f6f81"",""#7f5d5d""]","[1536,864]","1","144","[0.295,0.721,0.424,0.316]","2","0","false","","",""
"","","","","","two-step-trial","150","504448","0.0-150.0-0.0","","","","","[0,1]","1","1","420","0","0","[0,1]","0","0","319","0","[""#955db9"",""#48a782""]","[""#5f6f81"",""#7f5d5d""]","[1536,864]","1","145","[0.287,0.742,0.437,0.287]","2","0","false","","",""
"","","","","","two-step-trial","151","506962","0.0-151.0-0.0","","","","","[0,1]","1","1","0.20000004768371582","1","1","[2,3]","0","2","484.10000002384186","1","[""#955db9"",""#48a782""]","[""#5f6f81"",""#7f5d5d""]","[1536,864]","1","146","[0.278,0.742,0.427,0.31]","2","0","false","","",""
"","","","","","two-step-trial","152","509380","0.0-152.0-0.0","","","","","[0,1]","1","1","8.200000047683716","0","0","[0,1]","0","0","377.2000000476837","0","[""#955db9"",""#48a782""]","[""#5f6f81"",""#7f5d5d""]","[1536,864]","1","147","[0.277,0.741,0.475,0.282]","2","0","false","","",""
"","","","","","two-step-trial","153","512082","0.0-153.0-0.0","","","","","[0,1]","1","1","12.5","0","0","[0,1]","1","1","663.7999999523163","1","[""#955db9"",""#48a782""]","[""#5f6f81"",""#7f5d5d""]","[1536,864]","1","148","[0.264,0.733,0.497,0.268]","2","0","false","","",""
"","","","","","two-step-trial","154","515246","0.0-154.0-0.0","","","","","[0,1]","1","1","454.60000002384186","1","1","[2,3]","0","2","673.7000000476837","0","[""#955db9"",""#48a782""]","[""#5f6f81"",""#7f5d5d""]","[1536,864]","1","149","[0.258,0.74,0.534,0.264]","2","0","false","","",""
"","","","","","two-step-trial","155","518014","0.0-155.0-0.0","","","","","[0,1]","1","1","155.20000004768372","1","1","[2,3]","0","2","580.3999999761581","1","[""#955db9"",""#48a782""]","[""#5f6f81"",""#7f5d5d""]","[1536,864]","1","150","[0.326,0.735,0.576,0.271]","2","0","false","","",""
"","","","","","two-step-instructions","156","518262","0.0-156.0","238.10000002384186","","","[{""page_index"":0,""viewing_time"":237.70000004768372}]","","","","","","","","","","","","","","","","","","","","","","",""
"","","","","","two-step-comprehension","157","524308","0.0-157.0","6033.5","","","","","","","","","","","","","","","","","","","","","","","","[""purple"",""green""]","0","[{""event"":""blur"",""trial"":0,""time"":119},{""event"":""focus"",""trial"":1,""time"":44885},{""event"":""fullscreenenter"",""trial"":1,""time"":46419}]"
