"success","timeout","failed_images","failed_audio","failed_video","trial_type","trial_index","time_elapsed","internal_node_id","rt","stimulus","response","view_history","state_1_ids","state_1_key","state_1_choice","state_1_rt","transition","state","state_2_ids","state_2_key","state_2_choice","state_2_rt","outcome","rocket_colors","planet_colors","screen_resolution","minimum_resolution","trial","drifts","drift_ix","browser_interactions","missing","responses","num_errors","interactions"
"true","false","[]","[]","[]","preload","0","269","0.0-0.0","","","","","","","","","","","","","","","","","","","","","","","","","","",""
"true","","","","","fullscreen","1","4600","0.0-1.0","","","","","","","","","","","","","","","","","","","","","","","","","","",""
"","","","","","html-keyboard-response","2","14132","0.0-2.0","9528.799999952316","<p>You are starting a demo of the <b>two-step task.</b></p><p>To see the instructions, press the ""1"" key. To skip them, press the ""2"" key.</p>","2","","","","","","","","","","","","","","","","","","","","","","","",""
"","","","","","two-step-instructions","3","19795","0.0-4.0","5661","","","[{""page_index"":0,""viewing_time"":1827.2000000476837},{""page_index"":1,""viewing_time"":2766.2000000476837},{""page_index"":2,""viewing_time"":1066.5999999046326}]","","","","","","","","","","","","","","","","","","","","","","",""
"","","","","","two-step-trial","4","26667","0.0-5.0-0.0","","","","","[0,1]","1","1","3462.7000000476837","1","1","[2,3]","1","3","1380.5999999046326","1","[""#48a782"",""#955db9""]","[""#7f5d5d"",""#5f6f81""]","[1440,900]","1","1","[0.412,0.317,0.453,0.743]","2","0","false","","",""
"","","","","","two-step-trial","5","32079","0.0-6.0-0.0","","","","","[0,1]","1","1","1254","0","0","[0,1]","1","1","2148.5999999046326","0","[""#48a782"",""#955db9""]","[""#7f5d5d"",""#5f6f81""]","[1440,900]","1","2","[0.402,0.305,0.461,0.702]","2","0","false","","",""
"","","","","","two-step-trial","6","35695","0.0-7.0-0.0","","","","","[0,1]","1","1","521.1000001430511","1","1","[2,3]","1","3","1082","1","[""#48a782"",""#955db9""]","[""#7f5d5d"",""#5f6f81""]","[1440,900]","1","3","[0.373,0.327,0.445,0.732]","2","0","false","","",""
"","","","","","two-step-trial","7","38966","0.0-8.0-0.0","","","","","[0,1]","0","0","581.9000000953674","1","0","[0,1]","1","1","670.5","0","[""#48a782"",""#955db9""]","[""#7f5d5d"",""#5f6f81""]","[1440,900]","1","4","[0.381,0.303,0.418,0.736]","2","0","false","","",""
"","","","","","two-step-trial","8","41939","0.0-9.0-0.0","","","","","[0,1]","0","0","274.39999985694885","0","1","[2,3]","1","3","686.0999999046326","1","[""#48a782"",""#955db9""]","[""#7f5d5d"",""#5f6f81""]","[1440,900]","1","5","[0.366,0.363,0.401,0.709]","2","0","false","","",""
"","","","","","two-step-trial","9","44866","0.0-10.0-0.0","","","","","[0,1]","0","0","323.2999999523163","1","0","[0,1]","0","0","582.3000001907349","1","[""#48a782"",""#955db9""]","[""#7f5d5d"",""#5f6f81""]","[1440,900]","1","6","[0.393,0.368,0.383,0.711]","2","0","false","","",""
"","","","","","two-step-trial","10","47858","0.0-11.0-0.0","","","","","[0,1]","0","0","369.59999990463257","1","0","[0,1]","0","0","602.2999999523163","1","[""#48a782"",""#955db9""]","[""#7f5d5d"",""#5f6f81""]","[1440,900]","1","7","[0.4,0.405,0.425,0.678]","2","0","false","","",""
"","","","","","two-step-trial","11","50718","0.0-12.0-0.0","","","","","[0,1]","1","1","413","1","1","[2,3]","1","3","435.90000009536743","1","[""#48a782"",""#955db9""]","[""#7f5d5d"",""#5f6f81""]","[1440,900]","1","8","[0.383,0.388,0.415,0.699]","2","0","false","","",""
"","","","","","two-step-trial","12","53386","0.0-13.0-0.0","","","","","[0,1]","0","0","296","1","0","[0,1]","0","0","353.7999999523163","0","[""#48a782"",""#955db9""]","[""#7f5d5d"",""#5f6f81""]","[1440,900]","1","9","[0.347,0.439,0.405,0.713]","2","0","false","","",""
"","","","","","two-step-trial","13","55966","0.0-14.0-0.0","","","","","[0,1]","0","0","268.10000014305115","1","0","[0,1]","0","0","298.59999990463257","1","[""#48a782"",""#955db9""]","[""#7f5d5d"",""#5f6f81""]","[1440,900]","1","10","[0.367,0.459,0.46,0.731]","2","0","false","","",""
"","","","","","two-step-trial","14","58857","0.0-15.0-0.0","","","","","[0,1]","1","1","300.7999999523163","0","0","[0,1]","0","0","567.9000000953674","1","[""#48a782"",""#955db9""]","[""#7f5d5d"",""#5f6f81""]","[1440,900]","1","11","[0.397,0.451,0.461,0.701]","2","0","false","","",""
"","","","","","two-step-trial","15","61957","0.0-16.0-0.0","","","","","[0,1]","1","1","335.7999999523163","1","1","[2,3]","1","3","749.3000001907349","0","[""#48a782"",""#955db9""]","[""#7f5d5d"",""#5f6f81""]","[1440,900]","1","12","[0.357,0.426,0.459,0.707]","2","0","false","","",""
"","","","","","two-step-trial","16","66178","0.0-17.0-0.0","","","","","[0,1]","0","0","1072.5999999046326","1","0","[0,1]","0","0","1128.6999998092651","0","[""#48a782"",""#955db9""]","[""#7f5d5d"",""#5f6f81""]","[1440,900]","1","13","[0.337,0.398,0.428,0.721]","2","0","false","","",""
"","","","","","two-step-trial","17","69381","0.0-18.0-0.0","","","","","[0,1]","0","0","778.4000000953674","1","0","[0,1]","0","0","407","0","[""#48a782"",""#955db9""]","[""#7f5d5d"",""#5f6f81""]","[1440,900]","1","14","[0.283,0.408,0.384,0.719]","2","0","false","","",""
"","","","","","two-step-trial","18","72181","0.0-19.0-0.0","","","","","[0,1]","1","1","303.7000000476837","1","1","[2,3]","1","3","483.59999990463257","1","[""#48a782"",""#955db9""]","[""#7f5d5d"",""#5f6f81""]","[1440,900]","1","15","[0.295,0.37,0.375,0.738]","2","0","false","","",""
"","","","","","two-step-trial","19","74830","0.0-20.0-0.0","","","","","[0,1]","0","0","314.60000014305115","1","0","[0,1]","0","0","319.2000000476837","0","[""#48a782"",""#955db9""]","[""#7f5d5d"",""#5f6f81""]","[1440,900]","1","16","[0.305,0.343,0.325,0.713]","2","0","false","","",""
"","","","","","two-step-trial","20","78326","0.0-21.0-0.0","","","","","[0,1]","0","0","312.7000000476837","0","1","[2,3]","1","3","1171.7999999523163","0","[""#48a782"",""#955db9""]","[""#7f5d5d"",""#5f6f81""]","[1440,900]","1","17","[0.305,0.313,0.334,0.705]","2","0","false","","",""
"","","","","","two-step-trial","21","81606","0.0-22.0-0.0","","","","","[0,1]","0","0","305.7999999523163","0","1","[2,3]","1","3","966.5999999046326","1","[""#48a782"",""#955db9""]","[""#7f5d5d"",""#5f6f81""]","[1440,900]","1","18","[0.316,0.314,0.353,0.728]","2","0","false","","",""
"","","","","","two-step-trial","22","84673","0.0-23.0-0.0","","","","","[0,1]","0","0","293.2999999523163","0","1","[2,3]","1","3","756.7000000476837","1","[""#48a782"",""#955db9""]","[""#7f5d5d"",""#5f6f81""]","[1440,900]","1","19","[0.317,0.335,0.368,0.745]","2","0","false","","",""
"","","","","","two-step-trial","23","87657","0.0-24.0-0.0","","","","","[0,1]","0","0","292.89999985694885","1","0","[0,1]","1","1","675.5999999046326","0","[""#48a782"",""#955db9""]","[""#7f5d5d"",""#5f6f81""]","[1440,900]","1","20","[0.307,0.313,0.421,0.737]","2","0","false","","",""
"","","","","","two-step-trial","24","90117","0.0-25.0-0.0","","","","","[0,1]","0","0","229.79999995231628","0","1","[2,3]","1","3","216.59999990463257","0","[""#48a782"",""#955db9""]","[""#7f5d5d"",""#5f6f81""]","[1440,900]","1","21","[0.31,0.305,0.401,0.745]","2","0","false","","",""
"","","","","","two-step-trial","25","94277","0.0-26.0-0.0","","","","","[0,1]","1","1","571.0999999046326","1","1","[2,3]","1","3","1577.9000000953674","1","[""#48a782"",""#955db9""]","[""#7f5d5d"",""#5f6f81""]","[1440,900]","1","22","[0.326,0.31,0.391,0.735]","2","0","false","","",""
"","","","","","two-step-trial","26","97449","0.0-27.0-0.0","","","","","[0,1]","0","0","352.09999990463257","1","0","[0,1]","1","1","805.2000000476837","1","[""#48a782"",""#955db9""]","[""#7f5d5d"",""#5f6f81""]","[1440,900]","1","23","[0.331,0.302,0.379,0.741]","2","0","false","","",""
"","","","","","two-step-trial","27","106813","0.0-28.0-0.0","","","","","[0,1]","0","0","1212.1000001430511","0","1","[2,3]","1","3","6140.600000143051","0","[""#48a782"",""#955db9""]","[""#7f5d5d"",""#5f6f81""]","[1440,900]","1","24","[0.358,0.323,0.393,0.738]","2","0","false","","",""
"","","","","","two-step-trial","28","110046","0.0-29.0-0.0","","","","","[0,1]","1","1","545.6000001430511","1","1","[2,3]","1","3","670.7999999523163","1","[""#48a782"",""#955db9""]","[""#7f5d5d"",""#5f6f81""]","[1440,900]","1","25","[0.342,0.299,0.368,0.724]","2","0","false","","",""
"","","","","","two-step-trial","29","114064","0.0-30.0-0.0","","","","","[0,1]","0","0","254.59999990463257","1","0","[0,1]","1","1","1744.1000001430511","0","[""#48a782"",""#955db9""]","[""#7f5d5d"",""#5f6f81""]","[1440,900]","1","26","[0.362,0.294,0.373,0.738]","2","0","false","","",""
"","","","","","two-step-trial","30","116805","0.0-31.0-0.0","","","","","[0,1]","0","0","371.2999999523163","0","1","[2,3]","1","3","355.5","1","[""#48a782"",""#955db9""]","[""#7f5d5d"",""#5f6f81""]","[1440,900]","1","27","[0.332,0.286,0.389,0.683]","2","0","false","","",""
"","","","","","two-step-trial","31","120148","0.0-32.0-0.0","","","","","[0,1]","1","1","357.2999999523163","1","1","[2,3]","1","3","969.2000000476837","1","[""#48a782"",""#955db9""]","[""#7f5d5d"",""#5f6f81""]","[1440,900]","1","28","[0.34,0.303,0.383,0.689]","2","0","false","","",""
"","","","","","two-step-trial","32","123064","0.0-33.0-0.0","","","","","[0,1]","0","0","477.30000019073486","0","1","[2,3]","1","3","418.2999999523163","1","[""#48a782"",""#955db9""]","[""#7f5d5d"",""#5f6f81""]","[1440,900]","1","29","[0.317,0.302,0.385,0.679]","2","0","false","","",""
"","","","","","two-step-trial","33","125984","0.0-34.0-0.0","","","","","[0,1]","1","1","310.2000000476837","1","1","[2,3]","1","3","595.7999999523163","1","[""#48a782"",""#955db9""]","[""#7f5d5d"",""#5f6f81""]","[1440,900]","1","30","[0.353,0.346,0.414,0.681]","2","0","false","","",""
"","","","","","two-step-trial","34","128951","0.0-35.0-0.0","","","","","[0,1]","0","0","183.10000014305115","1","0","[0,1]","1","1","772.4000000953674","1","[""#48a782"",""#955db9""]","[""#7f5d5d"",""#5f6f81""]","[1440,900]","1","31","[0.325,0.331,0.414,0.647]","2","0","false","","",""
"","","","","","two-step-trial","35","132032","0.0-36.0-0.0","","","","","[0,1]","1","1","300.09999990463257","0","0","[0,1]","1","1","762.2999999523163","0","[""#48a782"",""#955db9""]","[""#7f5d5d"",""#5f6f81""]","[1440,900]","1","32","[0.328,0.33,0.383,0.663]","2","0","false","","",""
"","","","","","two-step-trial","36","134980","0.0-37.0-0.0","","","","","[0,1]","1","1","424.10000014305115","1","1","[2,3]","1","3","511.90000009536743","1","[""#48a782"",""#955db9""]","[""#7f5d5d"",""#5f6f81""]","[1440,900]","1","33","[0.322,0.332,0.362,0.633]","2","0","false","","",""
"","","","","","two-step-trial","37","137798","0.0-38.0-0.0","","","","","[0,1]","0","0","297","1","0","[0,1]","1","1","510.7999999523163","1","[""#48a782"",""#955db9""]","[""#7f5d5d"",""#5f6f81""]","[1440,900]","1","34","[0.322,0.307,0.363,0.617]","2","0","false","","",""
"","","","","","two-step-trial","38","140976","0.0-39.0-0.0","","","","","[0,1]","1","1","529.5","1","1","[2,3]","1","3","631","1","[""#48a782"",""#955db9""]","[""#7f5d5d"",""#5f6f81""]","[1440,900]","1","35","[0.297,0.336,0.333,0.65]","2","0","false","","",""
"","","","","","two-step-trial","39","144063","0.0-40.0-0.0","","","","","[0,1]","0","0","467","1","0","[0,1]","1","1","608.7999999523163","0","[""#48a782"",""#955db9""]","[""#7f5d5d"",""#5f6f81""]","[1440,900]","1","36","[0.326,0.343,0.331,0.633]","2","0","false","","",""
"","","","","","two-step-trial","40","146387","0.0-41.0-0.0","","","","","[0,1]","1","1","269.09999990463257","1","1","[2,3]","1","3","45.200000047683716","1","[""#48a782"",""#955db9""]","[""#7f5d5d"",""#5f6f81""]","[1440,900]","1","37","[0.318,0.324,0.327,0.612]","2","0","false","","",""
"","","","","","two-step-trial","41","149204","0.0-42.0-0.0","","","","","[0,1]","0","0","256.10000014305115","0","1","[2,3]","0","2","542.9000000953674","0","[""#48a782"",""#955db9""]","[""#7f5d5d"",""#5f6f81""]","[1440,900]","1","38","[0.304,0.324,0.319,0.591]","2","0","false","","",""
"","","","","","two-step-trial","42","151975","0.0-43.0-0.0","","","","","[0,1]","1","1","347.7999999523163","1","1","[2,3]","1","3","404.7000000476837","1","[""#48a782"",""#955db9""]","[""#7f5d5d"",""#5f6f81""]","[1440,900]","1","39","[0.283,0.362,0.351,0.561]","2","0","false","","",""
"","","","","","two-step-trial","43","154636","0.0-44.0-0.0","","","","","[0,1]","0","0","356.09999990463257","1","0","[0,1]","1","1","291.7000000476837","0","[""#48a782"",""#955db9""]","[""#7f5d5d"",""#5f6f81""]","[1440,900]","1","40","[0.295,0.387,0.331,0.546]","2","0","false","","",""
"","","","","","two-step-trial","44","157199","0.0-45.0-0.0","","","","","[0,1]","1","1","244","1","1","[2,3]","1","3","293.40000009536743","1","[""#48a782"",""#955db9""]","[""#7f5d5d"",""#5f6f81""]","[1440,900]","1","41","[0.293,0.385,0.33,0.584]","2","0","false","","",""
"","","","","","two-step-trial","45","159975","0.0-46.0-0.0","","","","","[0,1]","0","0","336.5","1","0","[0,1]","1","1","416.2999999523163","1","[""#48a782"",""#955db9""]","[""#7f5d5d"",""#5f6f81""]","[1440,900]","1","42","[0.304,0.383,0.318,0.562]","2","0","false","","",""
"","","","","","two-step-trial","46","162638","0.0-47.0-0.0","","","","","[0,1]","1","1","334.2999999523163","0","0","[0,1]","1","1","318.59999990463257","1","[""#48a782"",""#955db9""]","[""#7f5d5d"",""#5f6f81""]","[1440,900]","1","43","[0.318,0.398,0.315,0.576]","2","0","false","","",""
"","","","","","two-step-trial","47","165796","0.0-48.0-0.0","","","","","[0,1]","0","0","481.90000009536743","1","0","[0,1]","1","1","661.9000000953674","1","[""#48a782"",""#955db9""]","[""#7f5d5d"",""#5f6f81""]","[1440,900]","1","44","[0.321,0.371,0.348,0.616]","2","0","false","","",""
"","","","","","two-step-trial","48","168643","0.0-49.0-0.0","","","","","[0,1]","1","1","343.7999999523163","1","1","[2,3]","1","3","493.39999985694885","1","[""#48a782"",""#955db9""]","[""#7f5d5d"",""#5f6f81""]","[1440,900]","1","45","[0.319,0.418,0.367,0.598]","2","0","false","","",""
"","","","","","two-step-trial","49","171554","0.0-50.0-0.0","","","","","[0,1]","0","0","301.30000019073486","1","0","[0,1]","1","1","597.7000000476837","0","[""#48a782"",""#955db9""]","[""#7f5d5d"",""#5f6f81""]","[1440,900]","1","46","[0.326,0.44,0.366,0.588]","2","0","false","","",""
"","","","","","two-step-trial","50","174423","0.0-51.0-0.0","","","","","[0,1]","1","1","423.7000000476837","0","0","[0,1]","1","1","428.7999999523163","1","[""#48a782"",""#955db9""]","[""#7f5d5d"",""#5f6f81""]","[1440,900]","1","47","[0.315,0.46,0.378,0.597]","2","0","false","","",""
"","","","","","two-step-trial","51","177949","0.0-52.0-0.0","","","","","[0,1]","0","0","938.5","1","0","[0,1]","1","1","570.2999999523163","0","[""#48a782"",""#955db9""]","[""#7f5d5d"",""#5f6f81""]","[1440,900]","1","48","[0.281,0.476,0.36,0.571]","2","0","false","","",""
"","","","","","two-step-trial","52","180986","0.0-53.0-0.0","","","","","[0,1]","1","1","423.7000000476837","1","1","[2,3]","1","3","605.1000001430511","1","[""#48a782"",""#955db9""]","[""#7f5d5d"",""#5f6f81""]","[1440,900]","1","49","[0.254,0.439,0.383,0.579]","2","0","false","","",""
"","","","","","two-step-trial","53","184253","0.0-54.0-0.0","","","","","[0,1]","0","0","578.2999999523163","1","0","[0,1]","1","1","673.7000000476837","0","[""#48a782"",""#955db9""]","[""#7f5d5d"",""#5f6f81""]","[1440,900]","1","50","[0.303,0.471,0.392,0.592]","2","0","false","","",""
"","","","","","two-step-trial","54","187293","0.0-55.0-0.0","","","","","[0,1]","1","1","520.5","1","1","[2,3]","1","3","507.2000000476837","0","[""#48a782"",""#955db9""]","[""#7f5d5d"",""#5f6f81""]","[1440,900]","1","51","[0.274,0.41,0.377,0.587]","2","0","false","","",""
"","","","","","two-step-trial","55","190253","0.0-56.0-0.0","","","","","[0,1]","0","0","421.7000000476837","1","0","[0,1]","1","1","516.2000000476837","1","[""#48a782"",""#955db9""]","[""#7f5d5d"",""#5f6f81""]","[1440,900]","1","52","[0.29,0.413,0.363,0.572]","2","0","false","","",""
"","","","","","two-step-trial","56","193636","0.0-57.0-0.0","","","","","[0,1]","1","1","903.7000000476837","0","0","[0,1]","1","1","465.5","0","[""#48a782"",""#955db9""]","[""#7f5d5d"",""#5f6f81""]","[1440,900]","1","53","[0.292,0.425,0.318,0.522]","2","0","false","","",""
"","","","","","two-step-trial","57","197011","0.0-58.0-0.0","","","","","[0,1]","1","1","390.7000000476837","1","1","[2,3]","1","3","966.5","0","[""#48a782"",""#955db9""]","[""#7f5d5d"",""#5f6f81""]","[1440,900]","1","54","[0.284,0.449,0.332,0.552]","2","0","false","","",""
"","","","","","two-step-trial","58","199761","0.0-59.0-0.0","","","","","[0,1]","0","0","307.90000009536743","1","0","[0,1]","1","1","427","1","[""#48a782"",""#955db9""]","[""#7f5d5d"",""#5f6f81""]","[1440,900]","1","55","[0.253,0.41,0.344,0.579]","2","0","false","","",""
"","","","","","two-step-trial","59","202580","0.0-60.0-0.0","","","","","[0,1]","1","1","313","1","1","[2,3]","0","2","496.2000000476837","0","[""#48a782"",""#955db9""]","[""#7f5d5d"",""#5f6f81""]","[1440,900]","1","56","[0.277,0.408,0.373,0.526]","2","0","false","","",""
"","","","","","two-step-trial","60","205081","0.0-61.0-0.0","","","","","[0,1]","1","1","191.80000019073486","0","0","[0,1]","0","0","296.90000009536743","0","[""#48a782"",""#955db9""]","[""#7f5d5d"",""#5f6f81""]","[1440,900]","1","57","[0.252,0.418,0.356,0.521]","2","0","false","","",""
"","","","","","two-step-trial","61","207924","0.0-62.0-0.0","","","","","[0,1]","1","1","294.09999990463257","1","1","[2,3]","0","2","528.3000001907349","1","[""#48a782"",""#955db9""]","[""#7f5d5d"",""#5f6f81""]","[1440,900]","1","58","[0.282,0.462,0.395,0.504]","2","0","false","","",""
"","","","","","two-step-trial","62","210621","0.0-63.0-0.0","","","","","[0,1]","1","1","183.29999995231628","1","1","[2,3]","0","2","495.2000000476837","0","[""#48a782"",""#955db9""]","[""#7f5d5d"",""#5f6f81""]","[1440,900]","1","59","[0.297,0.475,0.39,0.498]","2","0","false","","",""
"","","","","","two-step-trial","63","213245","0.0-64.0-0.0","","","","","[0,1]","0","0","304","0","1","[2,3]","1","3","296.2999999523163","1","[""#48a782"",""#955db9""]","[""#7f5d5d"",""#5f6f81""]","[1440,900]","1","60","[0.295,0.463,0.364,0.52]","2","0","false","","",""
"","","","","","two-step-trial","64","216243","0.0-65.0-0.0","","","","","[0,1]","1","1","488.80000019073486","1","1","[2,3]","1","3","496.5","1","[""#48a782"",""#955db9""]","[""#7f5d5d"",""#5f6f81""]","[1440,900]","1","61","[0.295,0.433,0.355,0.543]","2","0","false","","",""
"","","","","","two-step-trial","65","219245","0.0-66.0-0.0","","","","","[0,1]","0","0","215.29999995231628","1","0","[0,1]","1","1","770.0999999046326","1","[""#48a782"",""#955db9""]","[""#7f5d5d"",""#5f6f81""]","[1440,900]","1","62","[0.307,0.43,0.353,0.543]","2","0","false","","",""
"","","","","","two-step-trial","66","222010","0.0-67.0-0.0","","","","","[0,1]","1","1","282.40000009536743","1","1","[2,3]","1","3","467.39999985694885","0","[""#48a782"",""#955db9""]","[""#7f5d5d"",""#5f6f81""]","[1440,900]","1","63","[0.353,0.426,0.367,0.529]","2","0","false","","",""
"","","","","","two-step-trial","67","224741","0.0-68.0-0.0","","","","","[0,1]","0","0","292.7999999523163","1","0","[0,1]","1","1","422.59999990463257","0","[""#48a782"",""#955db9""]","[""#7f5d5d"",""#5f6f81""]","[1440,900]","1","64","[0.37,0.432,0.33,0.47]","2","0","false","","",""
"","","","","","two-step-trial","68","227460","0.0-69.0-0.0","","","","","[0,1]","0","0","401.39999985694885","0","1","[2,3]","1","3","297.40000009536743","1","[""#48a782"",""#955db9""]","[""#7f5d5d"",""#5f6f81""]","[1440,900]","1","65","[0.377,0.393,0.348,0.501]","2","0","false","","",""
"","","","","","two-step-trial","69","230351","0.0-70.0-0.0","","","","","[0,1]","0","0","405.2000000476837","1","0","[0,1]","1","1","470.90000009536743","1","[""#48a782"",""#955db9""]","[""#7f5d5d"",""#5f6f81""]","[1440,900]","1","66","[0.345,0.371,0.258,0.459]","2","0","false","","",""
"","","","","","two-step-trial","70","232948","0.0-71.0-0.0","","","","","[0,1]","1","1","32.299999952316284","0","0","[0,1]","1","1","546.3999998569489","1","[""#48a782"",""#955db9""]","[""#7f5d5d"",""#5f6f81""]","[1440,900]","1","67","[0.332,0.355,0.256,0.426]","2","0","false","","",""
"","","","","","two-step-trial","71","236500","0.0-72.0-0.0","","","","","[0,1]","0","0","1159.7999999523163","0","1","[2,3]","1","3","371.10000014305115","0","[""#48a782"",""#955db9""]","[""#7f5d5d"",""#5f6f81""]","[1440,900]","1","68","[0.331,0.398,0.311,0.426]","2","0","false","","",""
"","","","","","two-step-trial","72","239472","0.0-73.0-0.0","","","","","[0,1]","1","1","442.90000009536743","1","1","[2,3]","1","3","517.9000000953674","0","[""#48a782"",""#955db9""]","[""#7f5d5d"",""#5f6f81""]","[1440,900]","1","69","[0.325,0.426,0.326,0.384]","2","0","false","","",""
"","","","","","two-step-trial","73","243160","0.0-74.0-0.0","","","","","[0,1]","0","0","1202.5","1","0","[0,1]","1","1","474.7000000476837","1","[""#48a782"",""#955db9""]","[""#7f5d5d"",""#5f6f81""]","[1440,900]","1","70","[0.293,0.475,0.305,0.375]","2","0","false","","",""
"","","","","","two-step-trial","74","246024","0.0-75.0-0.0","","","","","[0,1]","1","1","313.7999999523163","1","1","[2,3]","1","3","535.3000001907349","0","[""#48a782"",""#955db9""]","[""#7f5d5d"",""#5f6f81""]","[1440,900]","1","71","[0.268,0.51,0.303,0.365]","2","0","false","","",""
"","","","","","two-step-trial","75","249351","0.0-76.0-0.0","","","","","[0,1]","1","1","460.7999999523163","1","1","[2,3]","1","3","853.5","1","[""#48a782"",""#955db9""]","[""#7f5d5d"",""#5f6f81""]","[1440,900]","1","72","[0.294,0.507,0.326,0.359]","2","0","false","","",""
"","","","","","two-step-trial","76","252044","0.0-77.0-0.0","","","","","[0,1]","0","0","340.7000000476837","1","0","[0,1]","0","0","329.10000014305115","0","[""#48a782"",""#955db9""]","[""#7f5d5d"",""#5f6f81""]","[1440,900]","1","73","[0.296,0.541,0.313,0.367]","2","0","false","","",""
"","","","","","two-step-trial","77","254708","0.0-78.0-0.0","","","","","[0,1]","1","1","286.7000000476837","0","0","[0,1]","1","1","360.7000000476837","1","[""#48a782"",""#955db9""]","[""#7f5d5d"",""#5f6f81""]","[1440,900]","1","74","[0.282,0.491,0.339,0.374]","2","0","false","","",""
"","","","","","two-step-trial","78","257600","0.0-79.0-0.0","","","","","[0,1]","1","1","433.90000009536743","0","0","[0,1]","1","1","444.5","0","[""#48a782"",""#955db9""]","[""#7f5d5d"",""#5f6f81""]","[1440,900]","1","75","[0.336,0.513,0.333,0.367]","2","0","false","","",""
"","","","","","two-step-instructions","79","259056","0.0-80.0","1452.7999999523163","","","[{""page_index"":0,""viewing_time"":210.19999980926514},{""page_index"":1,""viewing_time"":1242.1000001430511}]","","","","","","","","","","","","","","","","","","","","","","",""
"","","","","","two-step-trial","80","264995","0.0-81.0-0.0","","","","","[0,1]","1","1","853.3999998569489","0","0","[0,1]","1","1","3064","1","[""#48a782"",""#955db9""]","[""#7f5d5d"",""#5f6f81""]","[1440,900]","1","76","[0.344,0.538,0.274,0.339]","2","0","false","","",""
"","","","","","two-step-trial","81","268808","0.0-82.0-0.0","","","","","[0,1]","1","1","545.5","1","1","[2,3]","1","3","1253.3999998569489","1","[""#48a782"",""#955db9""]","[""#7f5d5d"",""#5f6f81""]","[1440,900]","1","77","[0.322,0.54,0.262,0.343]","2","0","false","","",""
"","","","","","two-step-trial","82","271609","0.0-83.0-0.0","","","","","[0,1]","0","0","434.2000000476837","1","0","[0,1]","1","1","357.10000014305115","1","[""#48a782"",""#955db9""]","[""#7f5d5d"",""#5f6f81""]","[1440,900]","1","78","[0.351,0.561,0.265,0.342]","2","0","false","","",""
"","","","","","two-step-trial","83","274550","0.0-84.0-0.0","","","","","[0,1]","1","1","507.7000000476837","1","1","[2,3]","1","3","419.7999999523163","0","[""#48a782"",""#955db9""]","[""#7f5d5d"",""#5f6f81""]","[1440,900]","1","79","[0.335,0.543,0.286,0.35]","2","0","false","","",""
"","","","","","two-step-trial","84","277146","0.0-85.0-0.0","","","","","[0,1]","1","1","294.89999985694885","0","0","[0,1]","1","1","279.09999990463257","1","[""#48a782"",""#955db9""]","[""#7f5d5d"",""#5f6f81""]","[1440,900]","1","80","[0.328,0.536,0.289,0.405]","2","0","false","","",""
"","","","","","two-step-trial","85","279666","0.0-86.0-0.0","","","","","[0,1]","1","1","186.29999995231628","1","1","[2,3]","1","3","319.7000000476837","0","[""#48a782"",""#955db9""]","[""#7f5d5d"",""#5f6f81""]","[1440,900]","1","81","[0.286,0.534,0.265,0.391]","2","0","false","","",""
"","","","","","two-step-trial","86","281850","0.0-87.0-0.0","","","","","[0,1]","0","0","138.09999990463257","0","1","[2,3]","1","3","26.800000190734863","0","[""#48a782"",""#955db9""]","[""#7f5d5d"",""#5f6f81""]","[1440,900]","1","82","[0.307,0.553,0.256,0.373]","2","0","false","","",""
"","","","","","two-step-trial","87","284639","0.0-88.0-0.0","","","","","[0,1]","1","1","397","0","0","[0,1]","1","1","375.5","0","[""#48a782"",""#955db9""]","[""#7f5d5d"",""#5f6f81""]","[1440,900]","1","83","[0.306,0.564,0.273,0.38]","2","0","false","","",""
"","","","","","two-step-trial","88","287250","0.0-89.0-0.0","","","","","[0,1]","1","1","260.7000000476837","0","0","[0,1]","1","1","339.2999999523163","1","[""#48a782"",""#955db9""]","[""#7f5d5d"",""#5f6f81""]","[1440,900]","1","84","[0.263,0.564,0.275,0.397]","2","0","false","","",""
"","","","","","two-step-trial","89","289891","0.0-90.0-0.0","","","","","[0,1]","1","1","170.40000009536743","1","1","[2,3]","1","3","450.89999985694885","0","[""#48a782"",""#955db9""]","[""#7f5d5d"",""#5f6f81""]","[1440,900]","1","85","[0.295,0.592,0.3,0.406]","2","0","false","","",""
"","","","","","two-step-trial","90","292911","0.0-91.0-0.0","","","","","[0,1]","1","1","456.10000014305115","1","1","[2,3]","1","3","547.7000000476837","0","[""#48a782"",""#955db9""]","[""#7f5d5d"",""#5f6f81""]","[1440,900]","1","86","[0.266,0.571,0.324,0.417]","2","0","false","","",""
"","","","","","two-step-trial","91","295977","0.0-92.0-0.0","","","","","[0,1]","1","1","434.40000009536743","1","1","[2,3]","0","2","613.5","0","[""#48a782"",""#955db9""]","[""#7f5d5d"",""#5f6f81""]","[1440,900]","1","87","[0.25,0.532,0.345,0.39]","2","0","false","","",""
"","","","","","two-step-trial","92","299906","0.0-93.0-0.0","","","","","[0,1]","1","1","1303.2999999523163","1","1","[2,3]","0","2","605.9000000953674","0","[""#48a782"",""#955db9""]","[""#7f5d5d"",""#5f6f81""]","[1440,900]","1","88","[0.258,0.529,0.341,0.378]","2","0","false","","",""
"","","","","","two-step-trial","93","305464","0.0-94.0-0.0","","","","","[0,1]","1","1","173.39999985694885","1","1","[2,3]","1","3","3039.5","1","[""#48a782"",""#955db9""]","[""#7f5d5d"",""#5f6f81""]","[1440,900]","1","89","[0.266,0.533,0.306,0.41]","2","0","false","","",""
"","","","","","two-step-trial","94","308887","0.0-95.0-0.0","","","","","[0,1]","1","1","895.2999999523163","0","0","[0,1]","1","1","511.2000000476837","1","[""#48a782"",""#955db9""]","[""#7f5d5d"",""#5f6f81""]","[1440,900]","1","90","[0.254,0.554,0.297,0.382]","2","0","false","","",""
"","","","","","two-step-trial","95","311749","0.0-96.0-0.0","","","","","[0,1]","1","1","386.7999999523163","1","1","[2,3]","1","3","457.2999999523163","1","[""#48a782"",""#955db9""]","[""#7f5d5d"",""#5f6f81""]","[1440,900]","1","91","[0.265,0.543,0.313,0.38]","2","0","false","","",""
"","","","","","two-step-trial","96","314618","0.0-97.0-0.0","","","","","[0,1]","0","0","564.4000000953674","1","0","[0,1]","1","1","285.7999999523163","1","[""#48a782"",""#955db9""]","[""#7f5d5d"",""#5f6f81""]","[1440,900]","1","92","[0.259,0.54,0.279,0.363]","2","0","false","","",""
"","","","","","two-step-trial","97","317498","0.0-98.0-0.0","","","","","[0,1]","0","0","376.39999985694885","1","0","[0,1]","1","1","483.90000009536743","1","[""#48a782"",""#955db9""]","[""#7f5d5d"",""#5f6f81""]","[1440,900]","1","93","[0.251,0.565,0.296,0.35]","2","0","false","","",""
"","","","","","two-step-trial","98","323215","0.0-99.0-0.0","","","","","[0,1]","0","0","2763.5999999046326","1","0","[0,1]","1","1","936.8000001907349","0","[""#48a782"",""#955db9""]","[""#7f5d5d"",""#5f6f81""]","[1440,900]","1","94","[0.276,0.543,0.275,0.322]","2","0","false","","",""
"","","","","","two-step-trial","99","327938","0.0-100.0-0.0","","","","","[0,1]","0","0","1892.8999998569489","0","1","[2,3]","1","3","809.5999999046326","1","[""#48a782"",""#955db9""]","[""#7f5d5d"",""#5f6f81""]","[1440,900]","1","95","[0.317,0.539,0.285,0.291]","2","0","false","","",""
"","","","","","two-step-trial","100","333898","0.0-101.0-0.0","","","","","[0,1]","1","1","1874.2000000476837","0","0","[0,1]","1","1","2069.7000000476837","1","[""#48a782"",""#955db9""]","[""#7f5d5d"",""#5f6f81""]","[1440,900]","1","96","[0.325,0.583,0.251,0.276]","2","0","false","","",""
"","","","","","two-step-trial","101","337013","0.0-102.0-0.0","","","","","[0,1]","1","1","727.2000000476837","0","0","[0,1]","1","1","375.90000009536743","0","[""#48a782"",""#955db9""]","[""#7f5d5d"",""#5f6f81""]","[1440,900]","1","97","[0.352,0.597,0.278,0.336]","2","0","false","","",""
"","","","","","two-step-trial","102","339873","0.0-103.0-0.0","","","","","[0,1]","1","1","398","0","0","[0,1]","1","1","444.7000000476837","1","[""#48a782"",""#955db9""]","[""#7f5d5d"",""#5f6f81""]","[1440,900]","1","98","[0.369,0.601,0.316,0.324]","2","0","false","","",""
"","","","","","two-step-trial","103","343297","0.0-104.0-0.0","","","","","[0,1]","1","1","440.2999999523163","1","1","[2,3]","1","3","965.7999999523163","0","[""#48a782"",""#955db9""]","[""#7f5d5d"",""#5f6f81""]","[1440,900]","1","99","[0.338,0.574,0.29,0.307]","2","0","false","","",""
"","","","","","two-step-trial","104","346806","0.0-105.0-0.0","","","","","[0,1]","1","1","589.0999999046326","0","0","[0,1]","1","1","905.7999999523163","0","[""#48a782"",""#955db9""]","[""#7f5d5d"",""#5f6f81""]","[1440,900]","1","100","[0.348,0.567,0.294,0.264]","2","0","false","","",""
"","","","","","two-step-trial","105","350121","0.0-106.0-0.0","","","","","[0,1]","1","1","626.7000000476837","1","1","[2,3]","0","2","666.3999998569489","0","[""#48a782"",""#955db9""]","[""#7f5d5d"",""#5f6f81""]","[1440,900]","1","101","[0.332,0.536,0.335,0.261]","2","0","false","","",""
"","","","","","two-step-trial","106","352944","0.0-107.0-0.0","","","","","[0,1]","1","1","144.39999985694885","1","1","[2,3]","1","3","657.8999998569489","0","[""#48a782"",""#955db9""]","[""#7f5d5d"",""#5f6f81""]","[1440,900]","1","102","[0.331,0.521,0.359,0.268]","2","0","false","","",""
"","","","","","two-step-trial","107","357144","0.0-108.0-0.0","","","","","[0,1]","1","1","1255.5999999046326","1","1","[2,3]","1","3","926.7000000476837","0","[""#48a782"",""#955db9""]","[""#7f5d5d"",""#5f6f81""]","[1440,900]","1","103","[0.317,0.518,0.371,0.309]","2","0","false","","",""
"","","","","","two-step-trial","108","360712","0.0-109.0-0.0","","","","","[0,1]","1","1","1075.3000001907349","1","1","[2,3]","1","3","473.5","0","[""#48a782"",""#955db9""]","[""#7f5d5d"",""#5f6f81""]","[1440,900]","1","104","[0.334,0.493,0.341,0.296]","2","0","false","","",""
"","","","","","two-step-trial","109","363663","0.0-110.0-0.0","","","","","[0,1]","1","1","486.59999990463257","1","1","[2,3]","0","2","448.40000009536743","0","[""#48a782"",""#955db9""]","[""#7f5d5d"",""#5f6f81""]","[1440,900]","1","105","[0.349,0.494,0.34,0.27]","2","0","false","","",""
"","","","","","two-step-trial","110","366423","0.0-111.0-0.0","","","","","[0,1]","0","0","333.39999985694885","1","0","[0,1]","1","1","407.60000014305115","1","[""#48a782"",""#955db9""]","[""#7f5d5d"",""#5f6f81""]","[1440,900]","1","106","[0.302,0.497,0.307,0.282]","2","0","false","","",""
"","","","","","two-step-trial","111","369632","0.0-112.0-0.0","","","","","[0,1]","1","1","437.69999980926514","1","1","[2,3]","1","3","752.1000001430511","0","[""#48a782"",""#955db9""]","[""#7f5d5d"",""#5f6f81""]","[1440,900]","1","107","[0.336,0.523,0.294,0.315]","2","0","false","","",""
"","","","","","two-step-trial","112","373766","0.0-113.0-0.0","","","","","[0,1]","1","1","1743.3000001907349","1","1","[2,3]","1","3","374.2999999523163","1","[""#48a782"",""#955db9""]","[""#7f5d5d"",""#5f6f81""]","[1440,900]","1","108","[0.381,0.482,0.317,0.324]","2","0","false","","",""
"","","","","","two-step-trial","113","377415","0.0-114.0-0.0","","","","","[0,1]","0","0","1060.9000000953674","0","1","[2,3]","1","3","578","0","[""#48a782"",""#955db9""]","[""#7f5d5d"",""#5f6f81""]","[1440,900]","1","109","[0.342,0.505,0.32,0.33]","2","0","false","","",""
"","","","","","two-step-trial","114","380447","0.0-115.0-0.0","","","","","[0,1]","1","1","468.60000014305115","1","1","[2,3]","1","3","544.4000000953674","0","[""#48a782"",""#955db9""]","[""#7f5d5d"",""#5f6f81""]","[1440,900]","1","110","[0.337,0.526,0.318,0.349]","2","0","false","","",""
"","","","","","two-step-trial","115","383446","0.0-116.0-0.0","","","","","[0,1]","1","1","443.7999999523163","1","1","[2,3]","0","2","538.9000000953674","1","[""#48a782"",""#955db9""]","[""#7f5d5d"",""#5f6f81""]","[1440,900]","1","111","[0.374,0.551,0.269,0.35]","2","0","false","","",""
"","","","","","two-step-trial","116","387096","0.0-117.0-0.0","","","","","[0,1]","1","1","456.10000014305115","0","0","[0,1]","1","1","1176.5999999046326","0","[""#48a782"",""#955db9""]","[""#7f5d5d"",""#5f6f81""]","[1440,900]","1","112","[0.355,0.517,0.255,0.331]","2","0","false","","",""
"","","","","","two-step-trial","117","390432","0.0-118.0-0.0","","","","","[0,1]","1","1","733.4000000953674","1","1","[2,3]","0","2","584.0999999046326","0","[""#48a782"",""#955db9""]","[""#7f5d5d"",""#5f6f81""]","[1440,900]","1","113","[0.331,0.507,0.283,0.271]","2","0","false","","",""
"","","","","","two-step-trial","118","393071","0.0-119.0-0.0","","","","","[0,1]","0","0","209.70000004768372","1","0","[0,1]","1","1","418.5","1","[""#48a782"",""#955db9""]","[""#7f5d5d"",""#5f6f81""]","[1440,900]","1","114","[0.326,0.467,0.284,0.267]","2","0","false","","",""
"","","","","","two-step-trial","119","396133","0.0-120.0-0.0","","","","","[0,1]","1","1","271.59999990463257","1","1","[2,3]","0","2","774.3999998569489","1","[""#48a782"",""#955db9""]","[""#7f5d5d"",""#5f6f81""]","[1440,900]","1","115","[0.313,0.494,0.291,0.251]","2","0","false","","",""
"","","","","","two-step-trial","120","399023","0.0-121.0-0.0","","","","","[0,1]","0","0","394.2000000476837","1","0","[0,1]","1","1","469","0","[""#48a782"",""#955db9""]","[""#7f5d5d"",""#5f6f81""]","[1440,900]","1","116","[0.319,0.494,0.296,0.273]","2","0","false","","",""
"","","","","","two-step-trial","121","401591","0.0-122.0-0.0","","","","","[0,1]","0","0","251.59999990463257","1","0","[0,1]","1","1","299.90000009536743","0","[""#48a782"",""#955db9""]","[""#7f5d5d"",""#5f6f81""]","[1440,900]","1","117","[0.297,0.492,0.312,0.277]","2","0","false","","",""
"","","","","","two-step-trial","122","404246","0.0-123.0-0.0","","","","","[0,1]","1","1","275.40000009536743","1","1","[2,3]","0","2","358.40000009536743","0","[""#48a782"",""#955db9""]","[""#7f5d5d"",""#5f6f81""]","[1440,900]","1","118","[0.288,0.513,0.36,0.275]","2","0","false","","",""
"","","","","","two-step-trial","123","406935","0.0-124.0-0.0","","","","","[0,1]","0","0","264.7999999523163","1","0","[0,1]","0","0","397.2000000476837","0","[""#48a782"",""#955db9""]","[""#7f5d5d"",""#5f6f81""]","[1440,900]","1","119","[0.304,0.552,0.392,0.266]","2","0","false","","",""
"","","","","","two-step-trial","124","409727","0.0-125.0-0.0","","","","","[0,1]","0","0","280.7999999523163","1","0","[0,1]","0","0","490","0","[""#48a782"",""#955db9""]","[""#7f5d5d"",""#5f6f81""]","[1440,900]","1","120","[0.295,0.538,0.367,0.253]","2","0","false","","",""
"","","","","","two-step-trial","125","412415","0.0-126.0-0.0","","","","","[0,1]","0","0","285.7999999523163","1","0","[0,1]","1","1","384.60000014305115","1","[""#48a782"",""#955db9""]","[""#7f5d5d"",""#5f6f81""]","[1440,900]","1","121","[0.268,0.49,0.389,0.267]","2","0","false","","",""
"","","","","","two-step-trial","126","416134","0.0-127.0-0.0","","","","","[0,1]","1","1","1364.0999999046326","1","1","[2,3]","0","2","333.59999990463257","0","[""#48a782"",""#955db9""]","[""#7f5d5d"",""#5f6f81""]","[1440,900]","1","122","[0.292,0.548,0.366,0.262]","2","0","false","","",""
"","","","","","two-step-trial","127","419415","0.0-128.0-0.0","","","","","[0,1]","0","0","840.2999999523163","1","0","[0,1]","1","1","423.69999980926514","0","[""#48a782"",""#955db9""]","[""#7f5d5d"",""#5f6f81""]","[1440,900]","1","123","[0.287,0.579,0.38,0.276]","2","0","false","","",""
"","","","","","two-step-trial","128","422276","0.0-129.0-0.0","","","","","[0,1]","1","1","418.10000014305115","1","1","[2,3]","0","2","423.2999999523163","0","[""#48a782"",""#955db9""]","[""#7f5d5d"",""#5f6f81""]","[1440,900]","1","124","[0.296,0.64,0.405,0.262]","2","0","false","","",""
"","","","","","two-step-trial","129","425115","0.0-130.0-0.0","","","","","[0,1]","0","0","412","1","0","[0,1]","1","1","417.2999999523163","1","[""#48a782"",""#955db9""]","[""#7f5d5d"",""#5f6f81""]","[1440,900]","1","125","[0.25,0.637,0.448,0.25]","2","0","false","","",""
"","","","","","two-step-trial","130","428234","0.0-131.0-0.0","","","","","[0,1]","1","1","678.5","0","0","[0,1]","0","0","425.10000014305115","0","[""#48a782"",""#955db9""]","[""#7f5d5d"",""#5f6f81""]","[1440,900]","1","126","[0.255,0.666,0.447,0.257]","2","0","false","","",""
"","","","","","two-step-trial","131","431478","0.0-132.0-0.0","","","","","[0,1]","0","0","557.7999999523163","1","0","[0,1]","1","1","663.5","1","[""#48a782"",""#955db9""]","[""#7f5d5d"",""#5f6f81""]","[1440,900]","1","127","[0.281,0.695,0.433,0.272]","2","0","false","","",""
"","","","","","two-step-trial","132","435534","0.0-133.0-0.0","","","","","[0,1]","1","1","1530.9000000953674","1","1","[2,3]","0","2","503.90000009536743","0","[""#48a782"",""#955db9""]","[""#7f5d5d"",""#5f6f81""]","[1440,900]","1","128","[0.277,0.667,0.42,0.278]","2","0","false","","",""
"","","","","","two-step-trial","133","439286","0.0-134.0-0.0","","","","","[0,1]","0","0","1418.2999999523163","1","0","[0,1]","1","1","318.59999990463257","1","[""#48a782"",""#955db9""]","[""#7f5d5d"",""#5f6f81""]","[1440,900]","1","129","[0.318,0.661,0.46,0.294]","2","0","false","","",""
"","","","","","two-step-trial","134","442715","0.0-135.0-0.0","","","","","[0,1]","1","1","319.7000000476837","0","0","[0,1]","1","1","1093.3999998569489","1","[""#48a782"",""#955db9""]","[""#7f5d5d"",""#5f6f81""]","[1440,900]","1","130","[0.306,0.677,0.461,0.259]","2","0","false","","",""
"","","","","","two-step-trial","135","445162","0.0-136.0-0.0","","","","","[0,1]","1","1","180.29999995231628","1","1","[2,3]","1","3","245.90000009536743","0","[""#48a782"",""#955db9""]","[""#7f5d5d"",""#5f6f81""]","[1440,900]","1","131","[0.35,0.655,0.474,0.278]","2","0","false","","",""
"","","","","","two-step-trial","136","448077","0.0-137.0-0.0","","","","","[0,1]","1","1","469","1","1","[2,3]","0","2","428.10000014305115","0","[""#48a782"",""#955db9""]","[""#7f5d5d"",""#5f6f81""]","[1440,900]","1","132","[0.352,0.663,0.445,0.297]","2","0","false","","",""
"","","","","","two-step-trial","137","451582","0.0-138.0-0.0","","","","","[0,1]","0","0","1094.0999999046326","0","1","[2,3]","1","3","395.59999990463257","1","[""#48a782"",""#955db9""]","[""#7f5d5d"",""#5f6f81""]","[1440,900]","1","133","[0.374,0.662,0.412,0.314]","2","0","false","","",""
"","","","","","two-step-trial","138","454282","0.0-139.0-0.0","","","","","[0,1]","1","1","262","1","1","[2,3]","1","3","424.2000000476837","1","[""#48a782"",""#955db9""]","[""#7f5d5d"",""#5f6f81""]","[1440,900]","1","134","[0.405,0.666,0.424,0.315]","2","0","false","","",""
"","","","","","two-step-trial","139","458165","0.0-140.0-0.0","","","","","[0,1]","1","1","1412.5","1","1","[2,3]","1","3","446.10000014305115","0","[""#48a782"",""#955db9""]","[""#7f5d5d"",""#5f6f81""]","[1440,900]","1","135","[0.43,0.696,0.452,0.345]","2","0","false","","",""
"","","","","","two-step-trial","140","461221","0.0-141.0-0.0","","","","","[0,1]","0","0","586.7000000476837","1","0","[0,1]","1","1","452.89999985694885","0","[""#48a782"",""#955db9""]","[""#7f5d5d"",""#5f6f81""]","[1440,900]","1","136","[0.426,0.681,0.444,0.337]","2","0","false","","",""
"","","","","","two-step-trial","141","464737","0.0-142.0-0.0","","","","","[0,1]","1","1","1028.9000000953674","1","1","[2,3]","1","3","472.5","0","[""#48a782"",""#955db9""]","[""#7f5d5d"",""#5f6f81""]","[1440,900]","1","137","[0.411,0.674,0.45,0.299]","2","0","false","","",""
"","","","","","two-step-trial","142","470361","0.0-143.0-0.0","","","","","[0,1]","1","1","948.5999999046326","0","0","[0,1]","0","0","2666.2000000476837","0","[""#48a782"",""#955db9""]","[""#7f5d5d"",""#5f6f81""]","[1440,900]","1","138","[0.414,0.699,0.459,0.339]","2","0","false","","",""
"","","","","","two-step-trial","143","473729","0.0-144.0-0.0","","","","","[0,1]","0","0","12.200000047683716","1","0","[0,1]","0","0","1340.5999999046326","0","[""#48a782"",""#955db9""]","[""#7f5d5d"",""#5f6f81""]","[1440,900]","1","139","[0.394,0.734,0.462,0.307]","2","0","false","","",""
"","","","","","two-step-trial","144","476580","0.0-145.0-0.0","","","","","[0,1]","0","0","305.39999985694885","0","1","[2,3]","1","3","533.9000000953674","0","[""#48a782"",""#955db9""]","[""#7f5d5d"",""#5f6f81""]","[1440,900]","1","140","[0.361,0.693,0.467,0.292]","2","0","false","","",""
"","","","","","two-step-trial","145","479364","0.0-146.0-0.0","","","","","[0,1]","0","0","210.5","0","1","[2,3]","0","2","554.0999999046326","0","[""#48a782"",""#955db9""]","[""#7f5d5d"",""#5f6f81""]","[1440,900]","1","141","[0.354,0.722,0.46,0.26]","2","0","false","","",""
"","","","","","two-step-trial","146","482226","0.0-147.0-0.0","","","","","[0,1]","0","0","295.2000000476837","1","0","[0,1]","0","0","554.4000000953674","1","[""#48a782"",""#955db9""]","[""#7f5d5d"",""#5f6f81""]","[1440,900]","1","142","[0.353,0.749,0.428,0.301]","2","0","false","","",""
"","","","","","two-step-trial","147","485043","0.0-148.0-0.0","","","","","[0,1]","1","1","288.7999999523163","1","1","[2,3]","0","2","511.7999999523163","1","[""#48a782"",""#955db9""]","[""#7f5d5d"",""#5f6f81""]","[1440,900]","1","143","[0.361,0.73,0.409,0.316]","2","0","false","","",""
"","","","","","two-step-trial","148","488793","0.0-149.0-0.0","","","","","[0,1]","0","0","905.4000000953674","1","0","[0,1]","0","0","829","1","[""#48a782"",""#955db9""]","[""#7f5d5d"",""#5f6f81""]","[1440,900]","1","144","[0.295,0.721,0.424,0.316]","2","0","false","","",""
"","","","","","two-step-trial","149","497023","0.0-150.0-0.0","","","","","[0,1]","1","1","5854.900000095367","1","1","[2,3]","0","2","366.2000000476837","1","[""#48a782"",""#955db9""]","[""#7f5d5d"",""#5f6f81""]","[1440,900]","1","145","[0.287,0.742,0.437,0.287]","2","0","false","","",""
"","","","","","two-step-trial","150","502724","0.0-151.0-0.0","","","","","[0,1]","0","0","3113.7999999523163","1","0","[0,1]","0","0","572.3999998569489","1","[""#48a782"",""#955db9""]","[""#7f5d5d"",""#5f6f81""]","[1440,900]","1","146","[0.278,0.742,0.427,0.31]","2","0","false","","",""
"","","","","","two-step-trial","151","509443","0.0-152.0-0.0","","","","","[0,1]","1","1","4402.100000143051","0","0","[0,1]","0","0","294.7999999523163","1","[""#48a782"",""#955db9""]","[""#7f5d5d"",""#5f6f81""]","[1440,900]","1","147","[0.277,0.741,0.475,0.282]","2","0","false","","",""
"","","","","","two-step-trial","152","513507","0.0-153.0-0.0","","","","","[0,1]","0","0","1553.4000000953674","1","0","[0,1]","0","0","492.2999999523163","0","[""#48a782"",""#955db9""]","[""#7f5d5d"",""#5f6f81""]","[1440,900]","1","148","[0.264,0.733,0.497,0.268]","2","0","false","","",""
"","","","","","two-step-trial","153","516335","0.0-154.0-0.0","","","","","[0,1]","0","0","426.90000009536743","0","1","[2,3]","1","3","382.5","0","[""#48a782"",""#955db9""]","[""#7f5d5d"",""#5f6f81""]","[1440,900]","1","149","[0.258,0.74,0.534,0.264]","2","0","false","","",""
"","","","","","two-step-trial","154","519211","0.0-155.0-0.0","","","","","[0,1]","1","1","297.5","1","1","[2,3]","0","2","567.2999999523163","0","[""#48a782"",""#955db9""]","[""#7f5d5d"",""#5f6f81""]","[1440,900]","1","150","[0.326,0.735,0.576,0.271]","2","0","false","","",""
"","","","","","two-step-instructions","155","519896","0.0-156.0","681.4000000953674","","","[{""page_index"":0,""viewing_time"":680.7000000476837}]","","","","","","","","","","","","","","","","","","","","","","",""
"","","","","","two-step-comprehension","156","529427","0.0-157.0","9526.599999904633","","","","","","","","","","","","","","","","","","","","","","","","[""green"",""purple""]","0","[{""event"":""focus"",""trial"":1,""time"":2020},{""event"":""fullscreenenter"",""trial"":1,""time"":3606}]"
