"success","timeout","failed_images","failed_audio","failed_video","trial_type","trial_index","time_elapsed","internal_node_id","rt","stimulus","response","view_history","responses","num_errors","quiz","phase","state_2_ids","state_2_key","state_2_choice","state_2_rt","outcome","screen_resolution","minimum_resolution","state_1_ids","state_1_key","state_1_choice","state_1_rt","transition","state","rocket_colors","planet_colors","trial","missing","drifts","drift_ix","browser_interactions","interactions"
"true","false","[]","[]","[]","preload","0","260","0.0-0.0","","","","","","","","","","","","","","","","","","","","","","","","","","","","",""
"true","","","","","fullscreen","1","3579","0.0-1.0","","","","","","","","","","","","","","","","","","","","","","","","","","","","",""
"","","","","","html-keyboard-response","2","22873","0.0-2.0","19290.799999952316","<p>You are starting a demo of the <b>two-step task.</b></p><p>To see the instructions, press the ""1"" key. To skip them, press the ""2"" key.</p>","1","","","","","","","","","","","","","","","","","","","","","","","","","",""
"","","","","","two-step-instructions","3","79651","0.0-3.0-0.0-1.0","56777.10000002384","","","[{""page_index"":0,""viewing_time"":35718.300000071526},{""page_index"":1,""viewing_time"":2517.0999999046326},{""page_index"":2,""viewing_time"":1834},{""page_index"":3,""viewing_time"":4144},{""page_index"":4,""viewing_time"":1189.2000000476837},{""page_index"":5,""viewing_time"":624.7999999523163},{""page_index"":6,""viewing_time"":539.1000000238419},{""page_index"":7,""viewing_time"":3312.899999976158},{""page_index"":8,""viewing_time"":3295.4000000953674},{""page_index"":9,""viewing_time"":1743.5999999046326},{""page_index"":10,""viewing_time"":1858.3000000715256}]","","","","","","","","","","","","","","","","","","","","","","","","",""
"","","","","","two-step-comprehension","4","92518","0.0-3.0-0.0-2.0","12864.899999976158","","","","[""left/right arrow keys"",""True"",""True""]","0","1","","","","","","","","","","","","","","","","","","","","","",""
"","","","","","two-step-instructions","5","98495","0.0-3.0-1.0-0.0-0.0","5973.199999928474","","","[{""page_index"":0,""viewing_time"":5972.899999976158}]","","","","instructions_1b","","","","","","","","","","","","","","","","","","","","",""
"","","","","","alien-practice","6","106712","0.0-3.0-1.0-1.0-0.0","","","","","","","","","[0,1]","1","1","6006.400000095367","1","[1680,939]","1","","","","","","","","","","","","","",""
"","","","","","alien-practice","7","109309","0.0-3.0-1.0-2.0-0.0","","","","","","","","","[0,1]","1","1","386.5","0","[1680,939]","1","","","","","","","","","","","","","",""
"","","","","","alien-practice","8","111843","0.0-3.0-1.0-3.0-0.0","","","","","","","","","[0,1]","1","1","322.10000002384186","1","[1680,939]","1","","","","","","","","","","","","","",""
"","","","","","alien-practice","9","114490","0.0-3.0-1.0-4.0-0.0","","","","","","","","","[0,1]","1","1","438.59999990463257","1","[1680,939]","1","","","","","","","","","","","","","",""
"","","","","","alien-practice","10","117099","0.0-3.0-1.0-5.0-0.0","","","","","","","","","[0,1]","1","1","397.60000002384186","1","[1680,939]","1","","","","","","","","","","","","","",""
"","","","","","two-step-instructions","11","141702","0.0-3.0-2.0-1.0","24600.600000023842","","","[{""page_index"":0,""viewing_time"":3766.9000000953674},{""page_index"":1,""viewing_time"":1152.3999999761581},{""page_index"":2,""viewing_time"":1647.7999999523163},{""page_index"":3,""viewing_time"":7320.600000023842},{""page_index"":4,""viewing_time"":6431.600000023842},{""page_index"":5,""viewing_time"":4281}]","","","","","","","","","","","","","","","","","","","","","","","","",""
"","","","","","two-step-comprehension","12","149668","0.0-3.0-2.0-2.0","7964.5","","","","[""left/right arrow keys"",""False"",""True""]","0","2","","","","","","","","","","","","","","","","","","","","","",""
"","","","","","two-step-instructions","13","164523","0.0-3.0-3.0-0.0","14852.300000071526","","","[{""page_index"":0,""viewing_time"":4544.5},{""page_index"":1,""viewing_time"":2040.1000000238419},{""page_index"":2,""viewing_time"":8267.300000071526}]","","","","","","","","","","","","","","","","","","","","","","","","",""
"","","","","","two-step-trial","14","168714","0.0-3.0-3.0-1.0-0.0","","","","","","","","","[2,3]","1","3","1104","1","[1680,939]","1","[0,1]","1","1","1078.1999999284744","1","1","[""#955db9"",""#48a782""]","[""#5f6f81"",""#7f5d5d""]","0","false","","","",""
"","","","","","two-step-trial","15","172048","0.0-3.0-3.0-1.0-0.1","","","","","","","","","[2,3]","1","3","587.6000000238419","1","[1680,939]","1","[0,1]","1","1","738.2999999523163","1","1","[""#955db9"",""#48a782""]","[""#5f6f81"",""#7f5d5d""]","0","false","","","",""
"","","","","","two-step-trial","16","174895","0.0-3.0-3.0-1.0-0.2","","","","","","","","","[2,3]","1","3","401.10000002384186","1","[1680,939]","1","[0,1]","1","1","436.2000000476837","1","1","[""#955db9"",""#48a782""]","[""#5f6f81"",""#7f5d5d""]","0","false","","","",""
"","","","","","two-step-trial","17","177765","0.0-3.0-3.0-1.0-0.3","","","","","","","","","[2,3]","1","3","430.60000002384186","1","[1680,939]","1","[0,1]","1","1","431.39999997615814","1","1","[""#955db9"",""#48a782""]","[""#5f6f81"",""#7f5d5d""]","0","false","","","",""
"","","","","","two-step-trial","18","180932","0.0-3.0-3.0-1.0-0.4","","","","","","","","","[2,3]","1","3","556.7999999523163","1","[1680,939]","1","[0,1]","1","1","602.1000000238419","1","1","[""#955db9"",""#48a782""]","[""#5f6f81"",""#7f5d5d""]","0","false","","","",""
"","","","","","two-step-trial","19","184122","0.0-3.0-3.0-1.0-0.5","","","","","","","","","[2,3]","1","3","353.39999997615814","0","[1680,939]","1","[0,1]","1","1","829.6999999284744","1","1","[""#955db9"",""#48a782""]","[""#5f6f81"",""#7f5d5d""]","0","false","","","",""
"","","","","","two-step-trial","20","186908","0.0-3.0-3.0-1.0-0.6","","","","","","","","","[2,3]","1","3","327.7000000476837","1","[1680,939]","1","[0,1]","1","1","452.5","1","1","[""#955db9"",""#48a782""]","[""#5f6f81"",""#7f5d5d""]","0","false","","","",""
"","","","","","two-step-trial","21","189717","0.0-3.0-3.0-1.0-0.7","","","","","","","","","[2,3]","1","3","411.2999999523163","1","[1680,939]","1","[0,1]","1","1","388.39999997615814","1","1","[""#955db9"",""#48a782""]","[""#5f6f81"",""#7f5d5d""]","0","false","","","",""
"","","","","","two-step-trial","22","192577","0.0-3.0-3.0-1.0-0.8","","","","","","","","","[0,1]","1","1","409.7000000476837","1","[1680,939]","1","[0,1]","1","1","444.2000000476837","0","0","[""#955db9"",""#48a782""]","[""#5f6f81"",""#7f5d5d""]","0","false","","","",""
"","","","","","two-step-trial","23","195492","0.0-3.0-3.0-1.0-0.9","","","","","","","","","[0,1]","1","1","409.39999997615814","1","[1680,939]","1","[0,1]","1","1","499.5","0","0","[""#955db9"",""#48a782""]","[""#5f6f81"",""#7f5d5d""]","0","false","","","",""
"","","","","","two-step-instructions","24","245927","0.0-3.0-4.0-1.0","50433.60000002384","","","[{""page_index"":0,""viewing_time"":3698.399999976158},{""page_index"":1,""viewing_time"":5452.300000071526},{""page_index"":2,""viewing_time"":1728.3999999761581},{""page_index"":3,""viewing_time"":4823},{""page_index"":4,""viewing_time"":13085.799999952316},{""page_index"":5,""viewing_time"":16665.700000047684},{""page_index"":6,""viewing_time"":4979.699999928474}]","","","","","","","","","","","","","","","","","","","","","","","","",""
"","","","","","two-step-comprehension","25","257685","0.0-3.0-4.0-2.0","11756.300000071526","","","","[""True"",""False"",""True""]","0","3","","","","","","","","","","","","","","","","","","","","","",""
"","","","","","two-step-instructions","26","269757","0.0-4.0","12070","","","[{""page_index"":0,""viewing_time"":1557.8999999761581},{""page_index"":1,""viewing_time"":5573.5},{""page_index"":2,""viewing_time"":4938.300000071526}]","","","","","","","","","","","","","","","","","","","","","","","","",""
"","","","","","two-step-trial","27","273631","0.0-5.0-0.0","","","","","","","","","[0,1]","1","1","770.2000000476837","0","[1680,939]","1","[0,1]","1","1","1096.2000000476837","0","0","[""#486ea7"",""#a75248""]","[""#706081"",""#5b7c65""]","1","false","[0.305,0.438,0.598,0.713]","3","0",""
"","","","","","two-step-trial","28","276894","0.0-6.0-0.0","","","","","","","","","[2,3]","1","3","838.1000000238419","1","[1680,939]","1","[0,1]","1","1","419.2999999523163","1","1","[""#486ea7"",""#a75248""]","[""#706081"",""#5b7c65""]","2","false","[0.326,0.396,0.598,0.702]","3","0",""
"","","","","","two-step-trial","29","280259","0.0-7.0-0.0","","","","","","","","","[2,3]","1","3","660.7999999523163","1","[1680,939]","1","[0,1]","1","1","696.2000000476837","1","1","[""#486ea7"",""#a75248""]","[""#706081"",""#5b7c65""]","3","false","[0.302,0.426,0.576,0.736]","3","0",""
"","","","","","two-step-trial","30","283225","0.0-8.0-0.0","","","","","","","","","[2,3]","1","3","485.39999997615814","0","[1680,939]","1","[0,1]","1","1","475.89999997615814","1","1","[""#486ea7"",""#a75248""]","[""#706081"",""#5b7c65""]","4","false","[0.362,0.43,0.582,0.702]","3","0",""
"","","","","","two-step-trial","31","286530","0.0-9.0-0.0","","","","","","","","","[0,1]","1","1","894.6999999284744","1","[1680,939]","1","[0,1]","1","1","401.89999997615814","0","0","[""#486ea7"",""#a75248""]","[""#706081"",""#5b7c65""]","5","false","[0.368,0.485,0.615,0.711]","3","0",""
"","","","","","two-step-trial","32","289618","0.0-10.0-0.0","","","","","","","","","[0,1]","1","1","673.5","0","[1680,939]","1","[0,1]","1","1","407.3000000715256","0","0","[""#486ea7"",""#a75248""]","[""#706081"",""#5b7c65""]","6","false","[0.404,0.486,0.616,0.744]","3","0",""
"","","","","","two-step-trial","33","292613","0.0-11.0-0.0","","","","","","","","","[2,3]","1","3","530.1000000238419","1","[1680,939]","1","[0,1]","1","1","459.2000000476837","1","1","[""#486ea7"",""#a75248""]","[""#706081"",""#5b7c65""]","7","false","[0.387,0.453,0.558,0.725]","3","0",""
"","","","","","two-step-trial","34","295542","0.0-12.0-0.0","","","","","","","","","[0,1]","1","1","556.0999999046326","0","[1680,939]","1","[0,1]","1","1","364.1999999284744","0","0","[""#486ea7"",""#a75248""]","[""#706081"",""#5b7c65""]","8","false","[0.438,0.474,0.539,0.737]","3","0",""
"","","","","","two-step-trial","35","298421","0.0-13.0-0.0","","","","","","","","","[2,3]","1","3","529.1000000238419","0","[1680,939]","1","[0,1]","1","1","345.1999999284744","1","1","[""#486ea7"",""#a75248""]","[""#706081"",""#5b7c65""]","9","false","[0.459,0.489,0.53,0.714]","3","0",""
"","","","","","two-step-trial","36","301462","0.0-14.0-0.0","","","","","","","","","[0,1]","1","1","677.2000000476837","0","[1680,939]","1","[0,1]","1","1","354","0","0","[""#486ea7"",""#a75248""]","[""#706081"",""#5b7c65""]","10","false","[0.45,0.506,0.534,0.707]","3","0",""
"","","","","","two-step-trial","37","304346","0.0-15.0-0.0","","","","","","","","","[2,3]","0","2","552.5","1","[1680,939]","1","[0,1]","1","1","324.8000000715256","1","1","[""#486ea7"",""#a75248""]","[""#706081"",""#5b7c65""]","11","false","[0.425,0.476,0.477,0.71]","3","0",""
"","","","","","two-step-trial","38","307279","0.0-16.0-0.0","","","","","","","","","[0,1]","0","0","539.1000000238419","1","[1680,939]","1","[0,1]","1","1","390.10000002384186","0","0","[""#486ea7"",""#a75248""]","[""#706081"",""#5b7c65""]","12","false","[0.397,0.483,0.492,0.681]","3","0",""
"","","","","","two-step-trial","39","310340","0.0-17.0-0.0","","","","","","","","","[2,3]","0","2","461.39999997615814","1","[1680,939]","1","[0,1]","1","1","592.1000000238419","1","1","[""#486ea7"",""#a75248""]","[""#706081"",""#5b7c65""]","13","false","[0.407,0.496,0.476,0.697]","3","0",""
"","","","","","two-step-trial","40","313604","0.0-18.0-0.0","","","","","","","","","[0,1]","1","1","602.3999999761581","1","[1680,939]","1","[0,1]","1","1","654.3999999761581","0","0","[""#486ea7"",""#a75248""]","[""#706081"",""#5b7c65""]","14","false","[0.369,0.494,0.493,0.747]","3","0",""
"","","","","","two-step-trial","41","316720","0.0-19.0-0.0","","","","","","","","","[0,1]","1","1","609.3000000715256","1","[1680,939]","1","[0,1]","1","1","499.2000000476837","0","0","[""#486ea7"",""#a75248""]","[""#706081"",""#5b7c65""]","15","false","[0.342,0.537,0.465,0.735]","3","0",""
"","","","","","two-step-trial","42","320216","0.0-20.0-0.0","","","","","","","","","[2,3]","0","2","609.8000000715256","0","[1680,939]","1","[0,1]","1","1","879.0999999046326","1","1","[""#486ea7"",""#a75248""]","[""#706081"",""#5b7c65""]","16","false","[0.313,0.512,0.467,0.743]","3","0",""
"","","","","","two-step-trial","43","323717","0.0-21.0-0.0","","","","","","","","","[0,1]","1","1","1093.1000000238419","0","[1680,939]","1","[0,1]","1","1","399.3000000715256","0","0","[""#486ea7"",""#a75248""]","[""#706081"",""#5b7c65""]","17","false","[0.313,0.504,0.486,0.73]","3","0",""
"","","","","","two-step-trial","44","327490","0.0-22.0-0.0","","","","","","","","","[0,1]","1","1","708.9000000953674","0","[1680,939]","1","[0,1]","1","1","1058","0","0","[""#486ea7"",""#a75248""]","[""#706081"",""#5b7c65""]","18","false","[0.334,0.526,0.501,0.707]","3","0",""
"","","","","","two-step-trial","45","330879","0.0-23.0-0.0","","","","","","","","","[0,1]","1","1","678","1","[1680,939]","1","[0,1]","1","1","703.6999999284744","0","0","[""#486ea7"",""#a75248""]","[""#706081"",""#5b7c65""]","19","false","[0.312,0.543,0.473,0.695]","3","0",""
"","","","","","two-step-trial","46","347172","0.0-24.0-0.0","","","","","","","","","[0,1]","null","null","null","null","[1680,939]","1","[0,1]","null","null","null","1","null","[""#486ea7"",""#a75248""]","[""#706081"",""#5b7c65""]","20","true","[0.304,0.536,0.482,0.668]","3","2",""
"","","","","","two-step-trial","47","355143","0.0-24.1-0.1","","","","","","","","","[2,3]","1","3","2842.399999976158","0","[1680,887]","1","[0,1]","1","1","3120.0999999046326","1","1","[""#486ea7"",""#a75248""]","[""#706081"",""#5b7c65""]","20","false","[0.304,0.536,0.482,0.668]","3","0",""
"","","","","","two-step-trial","48","357925","0.0-25.0-0.0","","","","","","","","","[2,3]","1","3","404.2000000476837","1","[1680,939]","1","[0,1]","1","1","369.8000000715256","1","1","[""#486ea7"",""#a75248""]","[""#706081"",""#5b7c65""]","21","false","[0.309,0.543,0.477,0.682]","3","0",""
"","","","","","two-step-trial","49","361246","0.0-26.0-0.0","","","","","","","","","[2,3]","1","3","523.2000000476837","0","[1680,939]","1","[0,1]","1","1","792.5","1","1","[""#486ea7"",""#a75248""]","[""#706081"",""#5b7c65""]","22","false","[0.301,0.563,0.45,0.702]","3","0",""
"","","","","","two-step-trial","50","364385","0.0-27.0-0.0","","","","","","","","","[2,3]","1","3","656.3999999761581","1","[1680,939]","1","[0,1]","1","1","473.39999997615814","1","1","[""#486ea7"",""#a75248""]","[""#706081"",""#5b7c65""]","23","false","[0.322,0.569,0.42,0.742]","3","0",""
"","","","","","two-step-trial","51","367855","0.0-28.0-0.0","","","","","","","","","[2,3]","1","3","840.5999999046326","1","[1680,939]","1","[0,1]","1","1","626.7000000476837","1","1","[""#486ea7"",""#a75248""]","[""#706081"",""#5b7c65""]","24","false","[0.298,0.566,0.43,0.74]","3","0",""
"","","","","","two-step-trial","52","371743","0.0-29.0-0.0","","","","","","","","","[2,3]","1","3","983","0","[1680,939]","1","[0,1]","1","1","899.3000000715256","1","1","[""#486ea7"",""#a75248""]","[""#706081"",""#5b7c65""]","25","false","[0.293,0.552,0.394,0.669]","3","0",""
"","","","","","two-step-trial","53","375369","0.0-30.0-0.0","","","","","","","","","[2,3]","1","3","1175.7999999523163","0","[1680,939]","1","[0,1]","1","1","444.90000009536743","1","1","[""#486ea7"",""#a75248""]","[""#706081"",""#5b7c65""]","26","false","[0.285,0.566,0.393,0.625]","3","0",""
"","","","","","two-step-trial","54","378684","0.0-31.0-0.0","","","","","","","","","[2,3]","0","2","576.0999999046326","1","[1680,939]","1","[0,1]","1","1","732.2000000476837","1","1","[""#486ea7"",""#a75248""]","[""#706081"",""#5b7c65""]","27","false","[0.303,0.511,0.422,0.685]","3","0",""
"","","","","","two-step-trial","55","382042","0.0-32.0-0.0","","","","","","","","","[2,3]","0","2","664.6000000238419","0","[1680,939]","1","[0,1]","1","1","688.3000000715256","1","1","[""#486ea7"",""#a75248""]","[""#706081"",""#5b7c65""]","28","false","[0.301,0.517,0.418,0.733]","3","0",""
"","","","","","two-step-trial","56","385107","0.0-33.0-0.0","","","","","","","","","[2,3]","0","2","662.2000000476837","1","[1680,939]","1","[0,1]","1","1","399.7000000476837","1","1","[""#486ea7"",""#a75248""]","[""#706081"",""#5b7c65""]","29","false","[0.345,0.508,0.373,0.733]","3","0",""
"","","","","","two-step-trial","57","388466","0.0-34.0-0.0","","","","","","","","","[2,3]","0","2","443.6999999284744","0","[1680,939]","1","[0,1]","1","1","908.1000000238419","1","1","[""#486ea7"",""#a75248""]","[""#706081"",""#5b7c65""]","30","false","[0.33,0.509,0.425,0.737]","3","0",""
"","","","","","two-step-trial","58","391757","0.0-35.0-0.0","","","","","","","","","[2,3]","0","2","652.6999999284744","0","[1680,939]","1","[0,1]","1","1","630.9000000953674","1","1","[""#486ea7"",""#a75248""]","[""#706081"",""#5b7c65""]","31","false","[0.33,0.475,0.428,0.706]","3","0",""
"","","","","","two-step-trial","59","394701","0.0-36.0-0.0","","","","","","","","","[2,3]","1","3","412.5","1","[1680,939]","1","[0,1]","1","1","526.6999999284744","1","1","[""#486ea7"",""#a75248""]","[""#706081"",""#5b7c65""]","32","false","[0.332,0.492,0.442,0.701]","3","0",""
"","","","","","two-step-trial","60","398277","0.0-37.0-0.0","","","","","","","","","[2,3]","1","3","467.5","1","[1680,939]","1","[0,1]","1","1","1104.5","1","1","[""#486ea7"",""#a75248""]","[""#706081"",""#5b7c65""]","33","false","[0.306,0.461,0.388,0.724]","3","0",""
"","","","","","two-step-trial","61","402175","0.0-38.0-0.0","","","","","","","","","[2,3]","1","3","437.7999999523163","1","[1680,939]","1","[0,1]","1","1","1456.8999999761581","1","1","[""#486ea7"",""#a75248""]","[""#706081"",""#5b7c65""]","34","false","[0.335,0.445,0.418,0.721]","3","0",""
"","","","","","two-step-trial","62","406120","0.0-39.0-0.0","","","","","","","","","[2,3]","1","3","650.1000000238419","0","[1680,939]","1","[0,1]","1","1","1284.3999999761581","1","1","[""#486ea7"",""#a75248""]","[""#706081"",""#5b7c65""]","35","false","[0.342,0.479,0.439,0.713]","3","0",""
"","","","","","two-step-trial","63","409421","0.0-40.0-0.0","","","","","","","","","[2,3]","1","3","437.40000009536743","1","[1680,939]","1","[0,1]","1","1","858.1000000238419","1","1","[""#486ea7"",""#a75248""]","[""#706081"",""#5b7c65""]","36","false","[0.323,0.462,0.51,0.711]","3","0",""
"","","","","","two-step-trial","64","412834","0.0-41.0-0.0","","","","","","","","","[2,3]","1","3","607.1999999284744","1","[1680,939]","1","[0,1]","1","1","799.0999999046326","1","1","[""#486ea7"",""#a75248""]","[""#706081"",""#5b7c65""]","37","false","[0.323,0.441,0.493,0.674]","3","0",""
"","","","","","two-step-trial","65","417326","0.0-42.0-0.0","","","","","","","","","[2,3]","1","3","1118.1000000238419","1","[1680,939]","1","[0,1]","0","0","1367.1999999284744","0","1","[""#486ea7"",""#a75248""]","[""#706081"",""#5b7c65""]","38","false","[0.361,0.419,0.482,0.648]","3","0",""
"","","","","","two-step-trial","66","421003","0.0-43.0-0.0","","","","","","","","","[0,1]","1","1","802.1000000238419","0","[1680,939]","1","[0,1]","0","0","868.7000000476837","1","0","[""#486ea7"",""#a75248""]","[""#706081"",""#5b7c65""]","39","false","[0.386,0.389,0.441,0.619]","3","0",""
"","","","","","two-step-trial","67","425018","0.0-44.0-0.0","","","","","","","","","[2,3]","0","2","611.6000000238419","0","[1680,939]","1","[0,1]","0","0","1397.7999999523163","0","1","[""#486ea7"",""#a75248""]","[""#706081"",""#5b7c65""]","40","false","[0.384,0.374,0.431,0.605]","3","0",""
"","","","","","two-step-trial","68","428367","0.0-45.0-0.0","","","","","","","","","[0,1]","0","0","658.2999999523163","1","[1680,939]","1","[0,1]","0","0","681.7999999523163","1","0","[""#486ea7"",""#a75248""]","[""#706081"",""#5b7c65""]","41","false","[0.382,0.413,0.442,0.617]","3","0",""
"","","","","","two-step-trial","69","431841","0.0-46.0-0.0","","","","","","","","","[2,3]","1","3","853.8999999761581","1","[1680,939]","1","[0,1]","1","1","612.1000000238419","1","1","[""#486ea7"",""#a75248""]","[""#706081"",""#5b7c65""]","42","false","[0.398,0.39,0.424,0.641]","3","0",""
"","","","","","two-step-trial","70","437162","0.0-47.0-0.0","","","","","","","","","[2,3]","1","3","508.60000002384186","1","[1680,939]","1","[0,1]","1","1","2804","1","1","[""#486ea7"",""#a75248""]","[""#706081"",""#5b7c65""]","43","false","[0.37,0.404,0.412,0.63]","3","0",""
"","","","","","two-step-trial","71","440599","0.0-48.0-0.0","","","","","","","","","[2,3]","1","3","704.7000000476837","1","[1680,939]","1","[0,1]","1","1","725.5","1","1","[""#486ea7"",""#a75248""]","[""#706081"",""#5b7c65""]","44","false","[0.417,0.444,0.403,0.613]","3","0",""
"","","","","","two-step-trial","72","444569","0.0-49.0-0.0","","","","","","","","","[0,1]","0","0","1305.1999999284744","1","[1680,939]","1","[0,1]","1","1","656.7999999523163","0","0","[""#486ea7"",""#a75248""]","[""#706081"",""#5b7c65""]","45","false","[0.439,0.427,0.37,0.612]","3","0",""
"","","","","","two-step-trial","73","449286","0.0-50.0-0.0","","","","","","","","","[2,3]","1","3","1198.7000000476837","1","[1680,939]","1","[0,1]","1","1","1513.2999999523163","1","1","[""#486ea7"",""#a75248""]","[""#706081"",""#5b7c65""]","46","false","[0.459,0.416,0.369,0.621]","3","0",""
"","","","","","two-step-trial","74","453621","0.0-51.0-0.0","","","","","","","","","[0,1]","0","0","1542.6000000238419","0","[1680,939]","1","[0,1]","1","1","784.6999999284744","0","0","[""#486ea7"",""#a75248""]","[""#706081"",""#5b7c65""]","47","false","[0.475,0.425,0.384,0.6]","3","0",""
"","","","","","two-step-trial","75","457606","0.0-52.0-0.0","","","","","","","","","[2,3]","1","3","837.3999999761581","1","[1680,939]","1","[0,1]","1","1","1139","1","1","[""#486ea7"",""#a75248""]","[""#706081"",""#5b7c65""]","48","false","[0.438,0.4,0.412,0.606]","3","0",""
"","","","","","two-step-trial","76","461304","0.0-53.0-0.0","","","","","","","","","[0,1]","1","1","669.8000000715256","0","[1680,939]","1","[0,1]","1","1","1018.3999999761581","0","0","[""#486ea7"",""#a75248""]","[""#706081"",""#5b7c65""]","49","false","[0.47,0.408,0.421,0.598]","3","0",""
"","","","","","two-step-trial","77","464823","0.0-54.0-0.0","","","","","","","","","[0,1]","0","0","925.1999999284744","0","[1680,939]","1","[0,1]","1","1","586.3999999761581","0","0","[""#486ea7"",""#a75248""]","[""#706081"",""#5b7c65""]","50","false","[0.41,0.42,0.42,0.6]","3","0",""
"","","","","","two-step-trial","78","471419","0.0-55.0-0.0","","","","","","","","","[2,3]","1","3","4238","0","[1680,939]","1","[0,1]","1","1","349.7999999523163","1","1","[""#486ea7"",""#a75248""]","[""#706081"",""#5b7c65""]","51","false","[0.412,0.415,0.461,0.564]","3","0",""
"","","","","","two-step-trial","79","475017","0.0-56.0-0.0","","","","","","","","","[2,3]","0","2","1044.2000000476837","1","[1680,939]","1","[0,1]","1","1","547.8999999761581","1","1","[""#486ea7"",""#a75248""]","[""#706081"",""#5b7c65""]","52","false","[0.424,0.4,0.482,0.568]","3","0",""
"","","","","","two-step-trial","80","479225","0.0-57.0-0.0","","","","","","","","","[2,3]","1","3","1281","0","[1680,939]","1","[0,1]","1","1","918.5","1","1","[""#486ea7"",""#a75248""]","[""#706081"",""#5b7c65""]","53","false","[0.449,0.35,0.448,0.582]","3","0",""
"","","","","","two-step-trial","81","482932","0.0-58.0-0.0","","","","","","","","","[2,3]","0","2","979.7000000476837","1","[1680,939]","1","[0,1]","1","1","720.1999999284744","1","1","[""#486ea7"",""#a75248""]","[""#706081"",""#5b7c65""]","54","false","[0.409,0.381,0.436,0.573]","3","0",""
"","","","","","two-step-trial","82","487225","0.0-59.0-0.0","","","","","","","","","[0,1]","0","0","1139.2999999523163","0","[1680,939]","1","[0,1]","1","1","1143.1000000238419","0","0","[""#486ea7"",""#a75248""]","[""#706081"",""#5b7c65""]","55","false","[0.408,0.407,0.428,0.609]","3","0",""
"","","","","","two-step-trial","83","490910","0.0-60.0-0.0","","","","","","","","","[2,3]","0","2","889.7999999523163","1","[1680,939]","1","[0,1]","1","1","785.1000000238419","1","1","[""#486ea7"",""#a75248""]","[""#706081"",""#5b7c65""]","56","false","[0.417,0.354,0.381,0.598]","3","0",""
"","","","","","two-step-trial","84","494073","0.0-61.0-0.0","","","","","","","","","[0,1]","1","1","605.9000000953674","0","[1680,939]","1","[0,1]","1","1","550","0","0","[""#486ea7"",""#a75248""]","[""#706081"",""#5b7c65""]","57","false","[0.462,0.35,0.396,0.55]","3","0",""
"","","","","","two-step-trial","85","498172","0.0-62.0-0.0","","","","","","","","","[2,3]","0","2","1272.7999999523163","0","[1680,939]","1","[0,1]","1","1","822.6999999284744","1","1","[""#486ea7"",""#a75248""]","[""#706081"",""#5b7c65""]","58","false","[0.474,0.332,0.382,0.55]","3","0",""
"","","","","","two-step-trial","86","502606","0.0-63.0-0.0","","","","","","","","","[2,3]","0","2","1493.4000000953674","1","[1680,939]","1","[0,1]","1","1","934.6999999284744","1","1","[""#486ea7"",""#a75248""]","[""#706081"",""#5b7c65""]","59","false","[0.462,0.326,0.376,0.559]","3","0",""
"","","","","","two-step-trial","87","506588","0.0-64.0-0.0","","","","","","","","","[2,3]","0","2","940.7000000476837","0","[1680,939]","1","[0,1]","1","1","1033.7999999523163","1","1","[""#486ea7"",""#a75248""]","[""#706081"",""#5b7c65""]","60","false","[0.432,0.348,0.372,0.56]","3","0",""
"","","","","","two-step-trial","88","510738","0.0-65.0-0.0","","","","","","","","","[2,3]","0","2","1485.9000000953674","0","[1680,939]","1","[0,1]","1","1","657","1","1","[""#486ea7"",""#a75248""]","[""#706081"",""#5b7c65""]","61","false","[0.43,0.371,0.389,0.587]","3","0",""
"","","","","","two-step-trial","89","514648","0.0-66.0-0.0","","","","","","","","","[2,3]","1","3","604.3999999761581","1","[1680,939]","1","[0,1]","1","1","1302.5","1","1","[""#486ea7"",""#a75248""]","[""#706081"",""#5b7c65""]","62","false","[0.426,0.371,0.382,0.585]","3","0",""
"","","","","","two-step-trial","90","519443","0.0-67.0-0.0","","","","","","","","","[0,1]","0","0","1776.7999999523163","0","[1680,939]","1","[0,1]","1","1","1014.8999999761581","0","0","[""#486ea7"",""#a75248""]","[""#706081"",""#5b7c65""]","63","false","[0.431,0.358,0.396,0.59]","3","0",""
"","","","","","two-step-trial","91","524771","0.0-68.0-0.0","","","","","","","","","[0,1]","1","1","2417.899999976158","1","[1680,939]","1","[0,1]","1","1","901.8999999761581","0","0","[""#486ea7"",""#a75248""]","[""#706081"",""#5b7c65""]","64","false","[0.392,0.299,0.415,0.581]","3","0",""
"","","","","","two-step-trial","92","528873","0.0-69.0-0.0","","","","","","","","","[0,1]","1","1","940.0999999046326","1","[1680,939]","1","[0,1]","1","1","1157.7999999523163","0","0","[""#486ea7"",""#a75248""]","[""#706081"",""#5b7c65""]","65","false","[0.371,0.329,0.405,0.589]","3","0",""
"","","","","","two-step-trial","93","537471","0.0-70.0-0.0","","","","","","","","","[0,1]","1","1","5697.399999976158","0","[1680,939]","1","[0,1]","1","1","895.3999999761581","0","0","[""#486ea7"",""#a75248""]","[""#706081"",""#5b7c65""]","66","false","[0.354,0.287,0.413,0.591]","3","0",""
"","","","","","two-step-trial","94","541793","0.0-71.0-0.0","","","","","","","","","[0,1]","0","0","1483.3999999761581","0","[1680,939]","1","[0,1]","1","1","831.6000000238419","0","0","[""#486ea7"",""#a75248""]","[""#706081"",""#5b7c65""]","67","false","[0.398,0.254,0.426,0.603]","3","0",""
"","","","","","two-step-trial","95","546542","0.0-72.0-0.0","","","","","","","","","[2,3]","0","2","1589.6000000238419","1","[1680,939]","1","[0,1]","1","1","1156.2000000476837","1","1","[""#486ea7"",""#a75248""]","[""#706081"",""#5b7c65""]","68","false","[0.425,0.254,0.441,0.582]","3","0",""
"","","","","","two-step-trial","96","550189","0.0-73.0-0.0","","","","","","","","","[0,1]","1","1","724.7999999523163","1","[1680,939]","1","[0,1]","0","0","920.1000000238419","1","0","[""#486ea7"",""#a75248""]","[""#706081"",""#5b7c65""]","69","false","[0.474,0.287,0.392,0.531]","3","0",""
"","","","","","two-step-trial","97","553347","0.0-74.0-0.0","","","","","","","","","[0,1]","1","1","460.5","1","[1680,939]","1","[0,1]","0","0","689.3999999761581","1","0","[""#486ea7"",""#a75248""]","[""#706081"",""#5b7c65""]","70","false","[0.51,0.279,0.378,0.487]","3","0",""
"","","","","","two-step-trial","98","556539","0.0-75.0-0.0","","","","","","","","","[0,1]","1","1","433.2999999523163","0","[1680,939]","1","[0,1]","0","0","750.7000000476837","1","0","[""#486ea7"",""#a75248""]","[""#706081"",""#5b7c65""]","71","false","[0.506,0.269,0.381,0.477]","3","0",""
"","","","","","two-step-trial","99","559383","0.0-76.0-0.0","","","","","","","","","[0,1]","1","1","380.3000000715256","0","[1680,939]","1","[0,1]","0","0","456.39999997615814","1","0","[""#486ea7"",""#a75248""]","[""#706081"",""#5b7c65""]","72","false","[0.541,0.263,0.39,0.466]","3","0",""
"","","","","","two-step-trial","100","562467","0.0-77.0-0.0","","","","","","","","","[0,1]","1","1","501.2999999523163","1","[1680,939]","1","[0,1]","0","0","576.5","1","0","[""#486ea7"",""#a75248""]","[""#706081"",""#5b7c65""]","73","false","[0.49,0.271,0.373,0.466]","3","0",""
"","","","","","two-step-trial","101","565702","0.0-78.0-0.0","","","","","","","","","[0,1]","1","1","467.89999997615814","0","[1680,939]","1","[0,1]","0","0","757.5999999046326","1","0","[""#486ea7"",""#a75248""]","[""#706081"",""#5b7c65""]","74","false","[0.512,0.277,0.41,0.457]","3","0",""
"","","","","","two-step-trial","102","569594","0.0-79.0-0.0","","","","","","","","","[2,3]","1","3","1353","1","[1680,939]","1","[0,1]","1","1","532.3000000715256","1","1","[""#486ea7"",""#a75248""]","[""#706081"",""#5b7c65""]","75","false","[0.537,0.271,0.42,0.478]","3","0",""
"","","","","","two-step-instructions","103","596019","0.0-80.0","26424.300000071526","","","[{""page_index"":0,""viewing_time"":23855.100000023842},{""page_index"":1,""viewing_time"":2569}]","","","","","","","","","","","","","","","","","","","","","","","","",""
"","","","","","two-step-trial","104","600281","0.0-81.0-0.0","","","","","","","","","[0,1]","1","1","884.2999999523163","1","[1680,939]","1","[0,1]","1","1","1372.6000000238419","0","0","[""#486ea7"",""#a75248""]","[""#706081"",""#5b7c65""]","76","false","[0.539,0.257,0.455,0.448]","3","0",""
"","","","","","two-step-trial","105","607041","0.0-82.0-0.0","","","","","","","","","[2,3]","1","3","618.2999999523163","1","[1680,939]","1","[0,1]","1","1","4133","1","1","[""#486ea7"",""#a75248""]","[""#706081"",""#5b7c65""]","77","false","[0.56,0.261,0.459,0.423]","3","0",""
"","","","","","two-step-trial","106","610507","0.0-83.0-0.0","","","","","","","","","[2,3]","1","3","749.6000000238419","1","[1680,939]","1","[0,1]","1","1","706.8999999761581","1","1","[""#486ea7"",""#a75248""]","[""#706081"",""#5b7c65""]","78","false","[0.543,0.26,0.436,0.441]","3","0",""
"","","","","","two-step-trial","107","613797","0.0-84.0-0.0","","","","","","","","","[2,3]","1","3","753.6000000238419","0","[1680,939]","1","[0,1]","1","1","529.3999999761581","1","1","[""#486ea7"",""#a75248""]","[""#706081"",""#5b7c65""]","79","false","[0.536,0.268,0.465,0.475]","3","0",""
"","","","","","two-step-trial","108","619513","0.0-85.0-0.0","","","","","","","","","[2,3]","1","3","2057.5","1","[1680,939]","1","[0,1]","1","1","1651.1000000238419","1","1","[""#486ea7"",""#a75248""]","[""#706081"",""#5b7c65""]","80","false","[0.534,0.324,0.464,0.482]","3","0",""
"","","","","","two-step-trial","109","624734","0.0-86.0-0.0","","","","","","","","","[0,1]","1","1","2213.5999999046326","0","[1680,939]","1","[0,1]","1","1","1001.5","0","0","[""#486ea7"",""#a75248""]","[""#706081"",""#5b7c65""]","81","false","[0.553,0.309,0.445,0.465]","3","0",""
"","","","","","two-step-trial","110","628942","0.0-87.0-0.0","","","","","","","","","[2,3]","1","3","948.1000000238419","0","[1680,939]","1","[0,1]","1","1","1251.2999999523163","1","1","[""#486ea7"",""#a75248""]","[""#706081"",""#5b7c65""]","82","false","[0.563,0.291,0.404,0.437]","3","0",""
"","","","","","two-step-trial","111","633035","0.0-88.0-0.0","","","","","","","","","[0,1]","0","0","1419.3999999761581","0","[1680,939]","1","[0,1]","1","1","667.8999999761581","0","0","[""#486ea7"",""#a75248""]","[""#706081"",""#5b7c65""]","83","false","[0.563,0.298,0.442,0.474]","3","0",""
"","","","","","two-step-trial","112","636756","0.0-89.0-0.0","","","","","","","","","[2,3]","0","2","1046.2999999523163","1","[1680,939]","1","[0,1]","1","1","665","1","1","[""#486ea7"",""#a75248""]","[""#706081"",""#5b7c65""]","84","false","[0.591,0.316,0.454,0.449]","3","0",""
"","","","","","two-step-trial","113","641105","0.0-90.0-0.0","","","","","","","","","[0,1]","1","1","1459.1999999284744","0","[1680,939]","1","[0,1]","1","1","880.1000000238419","0","0","[""#486ea7"",""#a75248""]","[""#706081"",""#5b7c65""]","85","false","[0.57,0.324,0.436,0.421]","3","0",""
"","","","","","two-step-trial","114","644512","0.0-91.0-0.0","","","","","","","","","[2,3]","0","2","514.2000000476837","0","[1680,939]","1","[0,1]","1","1","883","1","1","[""#486ea7"",""#a75248""]","[""#706081"",""#5b7c65""]","86","false","[0.531,0.336,0.408,0.378]","3","0",""
"","","","","","two-step-trial","115","648027","0.0-92.0-0.0","","","","","","","","","[0,1]","1","1","741.0999999046326","1","[1680,939]","1","[0,1]","1","1","769.6000000238419","0","0","[""#486ea7"",""#a75248""]","[""#706081"",""#5b7c65""]","87","false","[0.529,0.309,0.432,0.403]","3","0",""
"","","","","","two-step-trial","116","651885","0.0-93.0-0.0","","","","","","","","","[0,1]","1","1","1094.5","0","[1680,939]","1","[0,1]","1","1","759.1000000238419","0","0","[""#486ea7"",""#a75248""]","[""#706081"",""#5b7c65""]","88","false","[0.532,0.296,0.431,0.406]","3","0",""
"","","","","","two-step-trial","117","655871","0.0-94.0-0.0","","","","","","","","","[2,3]","1","3","942.6999999284744","1","[1680,939]","1","[0,1]","1","1","1035.3999999761581","1","1","[""#486ea7"",""#a75248""]","[""#706081"",""#5b7c65""]","89","false","[0.553,0.328,0.456,0.411]","3","0",""
"","","","","","two-step-trial","118","660593","0.0-95.0-0.0","","","","","","","","","[0,1]","0","0","1657.5","0","[1680,939]","1","[0,1]","1","1","1058","0","0","[""#486ea7"",""#a75248""]","[""#706081"",""#5b7c65""]","90","false","[0.542,0.3,0.493,0.409]","3","0",""
"","","","","","two-step-trial","119","665392","0.0-96.0-0.0","","","","","","","","","[2,3]","1","3","1686","0","[1680,939]","1","[0,1]","1","1","1104.3999999761581","1","1","[""#486ea7"",""#a75248""]","[""#706081"",""#5b7c65""]","91","false","[0.54,0.298,0.512,0.437]","3","0",""
"","","","","","two-step-trial","120","668867","0.0-97.0-0.0","","","","","","","","","[2,3]","1","3","946","1","[1680,939]","1","[0,1]","1","1","523.8999999761581","1","1","[""#486ea7"",""#a75248""]","[""#706081"",""#5b7c65""]","92","false","[0.564,0.281,0.499,0.45]","3","0",""
"","","","","","two-step-trial","121","671999","0.0-98.0-0.0","","","","","","","","","[2,3]","1","3","569.8000000715256","1","[1680,939]","1","[0,1]","1","1","551.8999999761581","1","1","[""#486ea7"",""#a75248""]","[""#706081"",""#5b7c65""]","93","false","[0.542,0.268,0.44,0.42]","3","0",""
"","","","","","two-step-trial","122","677233","0.0-99.0-0.0","","","","","","","","","[0,1]","1","1","2655.1999999284744","0","[1680,939]","1","[0,1]","1","1","570.9000000953674","0","0","[""#486ea7"",""#a75248""]","[""#706081"",""#5b7c65""]","94","false","[0.539,0.26,0.421,0.438]","3","0",""
"","","","","","two-step-trial","123","680644","0.0-100.0-0.0","","","","","","","","","[2,3]","1","3","863.6000000238419","0","[1680,939]","1","[0,1]","1","1","539.1999999284744","1","1","[""#486ea7"",""#a75248""]","[""#706081"",""#5b7c65""]","95","false","[0.583,0.272,0.407,0.449]","3","0",""
"","","","","","two-step-trial","124","686021","0.0-101.0-0.0","","","","","","","","","[0,1]","0","0","1419.1000000238419","0","[1680,939]","1","[0,1]","1","1","1951","0","0","[""#486ea7"",""#a75248""]","[""#706081"",""#5b7c65""]","96","false","[0.596,0.257,0.37,0.508]","3","0",""
"","","","","","two-step-trial","125","689478","0.0-102.0-0.0","","","","","","","","","[2,3]","1","3","811.1999999284744","0","[1680,939]","1","[0,1]","1","1","638.5","1","1","[""#486ea7"",""#a75248""]","[""#706081"",""#5b7c65""]","97","false","[0.6,0.317,0.384,0.526]","3","0",""
"","","","","","two-step-trial","126","692821","0.0-103.0-0.0","","","","","","","","","[2,3]","0","2","847.4000000953674","0","[1680,939]","1","[0,1]","1","1","488.40000009536743","1","1","[""#486ea7"",""#a75248""]","[""#706081"",""#5b7c65""]","98","false","[0.573,0.304,0.387,0.504]","3","0",""
"","","","","","two-step-trial","127","696492","0.0-104.0-0.0","","","","","","","","","[2,3]","0","2","957.3000000715256","0","[1680,939]","1","[0,1]","1","1","706.5","1","1","[""#486ea7"",""#a75248""]","[""#706081"",""#5b7c65""]","99","false","[0.567,0.288,0.405,0.531]","3","0",""
"","","","","","two-step-trial","128","700130","0.0-105.0-0.0","","","","","","","","","[2,3]","1","3","473.10000002384186","1","[1680,939]","1","[0,1]","1","1","1155.2999999523163","1","1","[""#486ea7"",""#a75248""]","[""#706081"",""#5b7c65""]","100","false","[0.535,0.255,0.402,0.526]","3","0",""
"","","","","","two-step-trial","129","704920","0.0-106.0-0.0","","","","","","","","","[0,1]","1","1","1737.3999999761581","1","[1680,939]","1","[0,1]","1","1","1048.5","0","0","[""#486ea7"",""#a75248""]","[""#706081"",""#5b7c65""]","101","false","[0.52,0.27,0.348,0.507]","3","0",""
"","","","","","two-step-trial","130","708378","0.0-107.0-0.0","","","","","","","","","[2,3]","1","3","621.3999999761581","0","[1680,939]","1","[0,1]","1","1","827.2999999523163","1","1","[""#486ea7"",""#a75248""]","[""#706081"",""#5b7c65""]","102","false","[0.518,0.277,0.374,0.503]","3","0",""
"","","","","","two-step-trial","131","711172","0.0-108.0-0.0","","","","","","","","","[2,3]","1","3","445.7999999523163","0","[1680,939]","1","[0,1]","1","1","345.1999999284744","1","1","[""#486ea7"",""#a75248""]","[""#706081"",""#5b7c65""]","103","false","[0.492,0.318,0.345,0.483]","3","0",""
"","","","","","two-step-trial","132","714002","0.0-109.0-0.0","","","","","","","","","[2,3]","1","3","499.8000000715256","0","[1680,939]","1","[0,1]","1","1","326.5","1","1","[""#486ea7"",""#a75248""]","[""#706081"",""#5b7c65""]","104","false","[0.494,0.305,0.344,0.485]","3","0",""
"","","","","","two-step-trial","133","717810","0.0-110.0-0.0","","","","","","","","","[2,3]","0","2","1397.6000000238419","0","[1680,939]","1","[0,1]","1","1","406.7999999523163","1","1","[""#486ea7"",""#a75248""]","[""#706081"",""#5b7c65""]","105","false","[0.496,0.279,0.36,0.503]","3","0",""
"","","","","","two-step-trial","134","722109","0.0-111.0-0.0","","","","","","","","","[2,3]","0","2","1379.2999999523163","0","[1680,939]","1","[0,1]","1","1","909.0999999046326","1","1","[""#486ea7"",""#a75248""]","[""#706081"",""#5b7c65""]","106","false","[0.522,0.291,0.358,0.537]","3","0",""
"","","","","","two-step-trial","135","725219","0.0-112.0-0.0","","","","","","","","","[2,3]","1","3","344.3000000715256","1","[1680,939]","1","[0,1]","1","1","760.1000000238419","1","1","[""#486ea7"",""#a75248""]","[""#706081"",""#5b7c65""]","107","false","[0.481,0.324,0.357,0.499]","3","0",""
"","","","","","two-step-trial","136","729123","0.0-113.0-0.0","","","","","","","","","[2,3]","1","3","375.1999999284744","0","[1680,939]","1","[0,1]","1","1","1521.3000000715256","1","1","[""#486ea7"",""#a75248""]","[""#706081"",""#5b7c65""]","108","false","[0.504,0.334,0.327,0.481]","3","0",""
"","","","","","two-step-trial","137","732228","0.0-114.0-0.0","","","","","","","","","[0,1]","1","1","679.7999999523163","1","[1680,939]","1","[0,1]","0","0","420.8000000715256","1","0","[""#486ea7"",""#a75248""]","[""#706081"",""#5b7c65""]","109","false","[0.526,0.339,0.308,0.485]","3","0",""
"","","","","","two-step-trial","138","735002","0.0-115.0-0.0","","","","","","","","","[0,1]","1","1","344.89999997615814","0","[1680,939]","1","[0,1]","0","0","422","1","0","[""#486ea7"",""#a75248""]","[""#706081"",""#5b7c65""]","110","false","[0.551,0.358,0.295,0.444]","3","0",""
"","","","","","two-step-trial","139","737695","0.0-116.0-0.0","","","","","","","","","[0,1]","1","1","321.7999999523163","0","[1680,939]","1","[0,1]","0","0","363.5","1","0","[""#486ea7"",""#a75248""]","[""#706081"",""#5b7c65""]","111","false","[0.517,0.359,0.323,0.417]","3","0",""
"","","","","","two-step-trial","140","740441","0.0-117.0-0.0","","","","","","","","","[0,1]","0","0","325.10000002384186","1","[1680,939]","1","[0,1]","0","0","414.90000009536743","1","0","[""#486ea7"",""#a75248""]","[""#706081"",""#5b7c65""]","112","false","[0.506,0.34,0.322,0.412]","3","0",""
"","","","","","two-step-trial","141","743948","0.0-118.0-0.0","","","","","","","","","[2,3]","0","2","1084.6000000238419","1","[1680,939]","1","[0,1]","0","0","415.1999999284744","0","1","[""#486ea7"",""#a75248""]","[""#706081"",""#5b7c65""]","113","false","[0.467,0.28,0.348,0.413]","3","0",""
"","","","","","two-step-trial","142","747124","0.0-119.0-0.0","","","","","","","","","[0,1]","0","0","639.7999999523163","1","[1680,939]","1","[0,1]","0","0","529.3999999761581","1","0","[""#486ea7"",""#a75248""]","[""#706081"",""#5b7c65""]","114","false","[0.494,0.276,0.373,0.43]","3","0",""
"","","","","","two-step-trial","143","750228","0.0-120.0-0.0","","","","","","","","","[0,1]","0","0","415.89999997615814","1","[1680,939]","1","[0,1]","0","0","679","1","0","[""#486ea7"",""#a75248""]","[""#706081"",""#5b7c65""]","115","false","[0.493,0.258,0.428,0.412]","3","0",""
"","","","","","two-step-trial","144","753101","0.0-121.0-0.0","","","","","","","","","[0,1]","0","0","433.10000002384186","0","[1680,939]","1","[0,1]","0","0","430.89999997615814","1","0","[""#486ea7"",""#a75248""]","[""#706081"",""#5b7c65""]","116","false","[0.492,0.266,0.447,0.466]","3","0",""
"","","","","","two-step-trial","145","755788","0.0-122.0-0.0","","","","","","","","","[2,3]","0","2","342.89999997615814","0","[1680,939]","1","[0,1]","0","0","340","0","1","[""#486ea7"",""#a75248""]","[""#706081"",""#5b7c65""]","117","false","[0.512,0.269,0.457,0.471]","3","0",""
"","","","","","two-step-trial","146","759411","0.0-123.0-0.0","","","","","","","","","[0,1]","0","0","1136.1999999284744","1","[1680,939]","1","[0,1]","0","0","479.5","1","0","[""#486ea7"",""#a75248""]","[""#706081"",""#5b7c65""]","118","false","[0.551,0.283,0.506,0.484]","3","0",""
"","","","","","two-step-trial","147","762395","0.0-124.0-0.0","","","","","","","","","[0,1]","0","0","406.60000002384186","0","[1680,939]","1","[0,1]","0","0","572.6000000238419","1","0","[""#486ea7"",""#a75248""]","[""#706081"",""#5b7c65""]","119","false","[0.537,0.273,0.462,0.473]","3","0",""
"","","","","","two-step-trial","148","765228","0.0-125.0-0.0","","","","","","","","","[0,1]","0","0","451.7999999523163","0","[1680,939]","1","[0,1]","0","0","370.39999997615814","1","0","[""#486ea7"",""#a75248""]","[""#706081"",""#5b7c65""]","120","false","[0.49,0.26,0.46,0.477]","3","0",""
"","","","","","two-step-trial","149","768279","0.0-126.0-0.0","","","","","","","","","[2,3]","0","2","699.8000000715256","1","[1680,939]","1","[0,1]","0","0","341.7999999523163","0","1","[""#486ea7"",""#a75248""]","[""#706081"",""#5b7c65""]","121","false","[0.547,0.275,0.457,0.431]","3","0",""
"","","","","","two-step-trial","150","771384","0.0-127.0-0.0","","","","","","","","","[2,3]","0","2","422.5","1","[1680,939]","1","[0,1]","1","1","671.4000000953674","1","1","[""#486ea7"",""#a75248""]","[""#706081"",""#5b7c65""]","122","false","[0.578,0.269,0.386,0.411]","3","0",""
"","","","","","two-step-trial","151","774217","0.0-128.0-0.0","","","","","","","","","[2,3]","0","2","432.3000000715256","0","[1680,939]","1","[0,1]","1","1","393","1","1","[""#486ea7"",""#a75248""]","[""#706081"",""#5b7c65""]","123","false","[0.639,0.269,0.384,0.429]","3","0",""
"","","","","","two-step-trial","152","776932","0.0-129.0-0.0","","","","","","","","","[2,3]","0","2","369.6999999284744","0","[1680,939]","1","[0,1]","1","1","339.7999999523163","1","1","[""#486ea7"",""#a75248""]","[""#706081"",""#5b7c65""]","124","false","[0.636,0.254,0.416,0.449]","3","0",""
"","","","","","two-step-trial","153","779847","0.0-130.0-0.0","","","","","","","","","[2,3]","1","3","437.7999999523163","1","[1680,939]","1","[0,1]","1","1","474.2999999523163","1","1","[""#486ea7"",""#a75248""]","[""#706081"",""#5b7c65""]","125","false","[0.665,0.257,0.44,0.433]","3","0",""
"","","","","","two-step-trial","154","782705","0.0-131.0-0.0","","","","","","","","","[2,3]","1","3","442.7000000476837","1","[1680,939]","1","[0,1]","1","1","410.7999999523163","1","1","[""#486ea7"",""#a75248""]","[""#706081"",""#5b7c65""]","126","false","[0.694,0.25,0.453,0.414]","3","0",""
"","","","","","two-step-trial","155","785804","0.0-132.0-0.0","","","","","","","","","[2,3]","1","3","376.39999997615814","1","[1680,939]","1","[0,1]","1","1","716.6000000238419","1","1","[""#486ea7"",""#a75248""]","[""#706081"",""#5b7c65""]","127","false","[0.666,0.266,0.449,0.399]","3","0",""
"","","","","","two-step-trial","156","788646","0.0-133.0-0.0","","","","","","","","","[0,1]","1","1","422.89999997615814","0","[1680,939]","1","[0,1]","1","1","409.89999997615814","0","0","[""#486ea7"",""#a75248""]","[""#706081"",""#5b7c65""]","128","false","[0.66,0.272,0.461,0.39]","3","0",""
"","","","","","two-step-trial","157","791964","0.0-134.0-0.0","","","","","","","","","[2,3]","1","3","453.39999997615814","1","[1680,939]","1","[0,1]","1","1","858.2000000476837","1","1","[""#486ea7"",""#a75248""]","[""#706081"",""#5b7c65""]","129","false","[0.677,0.288,0.452,0.388]","3","0",""
"","","","","","two-step-trial","158","795063","0.0-135.0-0.0","","","","","","","","","[0,1]","0","0","729.5","1","[1680,939]","1","[0,1]","1","1","363.2000000476837","0","0","[""#486ea7"",""#a75248""]","[""#706081"",""#5b7c65""]","130","false","[0.654,0.252,0.415,0.434]","3","0",""
"","","","","","two-step-trial","159","798775","0.0-136.0-0.0","","","","","","","","","[0,1]","0","0","1262","1","[1680,939]","1","[0,1]","1","1","440.2000000476837","0","0","[""#486ea7"",""#a75248""]","[""#706081"",""#5b7c65""]","131","false","[0.662,0.271,0.398,0.411]","3","0",""
"","","","","","two-step-trial","160","801654","0.0-137.0-0.0","","","","","","","","","[0,1]","0","0","469.6999999284744","1","[1680,939]","1","[0,1]","0","0","403.59999990463257","1","0","[""#486ea7"",""#a75248""]","[""#706081"",""#5b7c65""]","132","false","[0.661,0.29,0.402,0.435]","3","0",""
"","","","","","two-step-trial","161","807933","0.0-138.0-0.0","","","","","","","","","[2,3]","1","3","3154.2000000476837","1","[1680,939]","1","[0,1]","0","0","1118","0","1","[""#486ea7"",""#a75248""]","[""#706081"",""#5b7c65""]","133","false","[0.665,0.307,0.385,0.395]","3","0",""
"","","","","","two-step-trial","162","811813","0.0-139.0-0.0","","","","","","","","","[0,1]","0","0","783.8999999761581","1","[1680,939]","1","[0,1]","0","0","1091.2999999523163","1","0","[""#486ea7"",""#a75248""]","[""#706081"",""#5b7c65""]","134","false","[0.696,0.308,0.332,0.425]","3","0",""
"","","","","","two-step-trial","163","817176","0.0-140.0-0.0","","","","","","","","","[2,3]","1","3","2230.5999999046326","1","[1680,939]","1","[0,1]","0","0","1124.8000000715256","0","1","[""#486ea7"",""#a75248""]","[""#706081"",""#5b7c65""]","135","false","[0.68,0.339,0.346,0.425]","3","0",""
"","","","","","two-step-trial","164","820781","0.0-141.0-0.0","","","","","","","","","[0,1]","0","0","857.9000000953674","0","[1680,939]","1","[0,1]","0","0","742.7999999523163","1","0","[""#486ea7"",""#a75248""]","[""#706081"",""#5b7c65""]","136","false","[0.674,0.33,0.342,0.403]","3","0",""
"","","","","","two-step-trial","165","824914","0.0-142.0-0.0","","","","","","","","","[2,3]","1","3","1140.8000000715256","0","[1680,939]","1","[0,1]","0","0","984.3999999761581","0","1","[""#486ea7"",""#a75248""]","[""#706081"",""#5b7c65""]","137","false","[0.699,0.293,0.329,0.403]","3","0",""
"","","","","","two-step-trial","166","827728","0.0-143.0-0.0","","","","","","","","","[2,3]","0","2","390","0","[1680,939]","1","[0,1]","0","0","415.89999997615814","0","1","[""#486ea7"",""#a75248""]","[""#706081"",""#5b7c65""]","138","false","[0.734,0.332,0.387,0.413]","3","0",""
"","","","","","two-step-trial","167","831356","0.0-144.0-0.0","","","","","","","","","[2,3]","1","3","1026.1999999284744","0","[1680,939]","1","[0,1]","0","0","595","0","1","[""#486ea7"",""#a75248""]","[""#706081"",""#5b7c65""]","139","false","[0.692,0.301,0.41,0.413]","3","0",""
"","","","","","two-step-trial","168","834443","0.0-145.0-0.0","","","","","","","","","[0,1]","0","0","539.6000000238419","1","[1680,939]","1","[0,1]","0","0","540.5","1","0","[""#486ea7"",""#a75248""]","[""#706081"",""#5b7c65""]","140","false","[0.722,0.286,0.408,0.406]","3","0",""
"","","","","","two-step-trial","169","837949","0.0-146.0-0.0","","","","","","","","","[2,3]","0","2","839.5","1","[1680,939]","1","[0,1]","0","0","664.0999999046326","0","1","[""#486ea7"",""#a75248""]","[""#706081"",""#5b7c65""]","141","false","[0.748,0.253,0.428,0.403]","3","0",""
"","","","","","two-step-trial","170","841100","0.0-147.0-0.0","","","","","","","","","[0,1]","0","0","506.2000000476837","0","[1680,939]","1","[0,1]","0","0","636.7999999523163","1","0","[""#486ea7"",""#a75248""]","[""#706081"",""#5b7c65""]","142","false","[0.73,0.307,0.452,0.407]","3","0",""
"","","","","","two-step-trial","171","844292","0.0-148.0-0.0","","","","","","","","","[0,1]","0","0","599.6000000238419","0","[1680,939]","1","[0,1]","0","0","584.3999999761581","1","0","[""#486ea7"",""#a75248""]","[""#706081"",""#5b7c65""]","143","false","[0.722,0.322,0.426,0.388]","3","0",""
"","","","","","two-step-trial","172","847787","0.0-149.0-0.0","","","","","","","","","[0,1]","0","0","951.1000000238419","1","[1680,939]","1","[0,1]","1","1","537.7000000476837","0","0","[""#486ea7"",""#a75248""]","[""#706081"",""#5b7c65""]","144","false","[0.741,0.323,0.436,0.398]","3","0",""
"","","","","","two-step-trial","173","850887","0.0-150.0-0.0","","","","","","","","","[0,1]","0","0","703.7000000476837","1","[1680,939]","1","[0,1]","1","1","390.2999999523163","0","0","[""#486ea7"",""#a75248""]","[""#706081"",""#5b7c65""]","145","false","[0.741,0.294,0.454,0.41]","3","0",""
"","","","","","two-step-trial","174","853926","0.0-151.0-0.0","","","","","","","","","[2,3]","0","2","530.7000000476837","1","[1680,939]","1","[0,1]","1","1","504.7000000476837","1","1","[""#486ea7"",""#a75248""]","[""#706081"",""#5b7c65""]","146","false","[0.741,0.316,0.493,0.383]","3","0",""
"","","","","","two-step-trial","175","857039","0.0-152.0-0.0","","","","","","","","","[0,1]","0","0","443","1","[1680,939]","1","[0,1]","1","1","664.1999999284744","0","0","[""#486ea7"",""#a75248""]","[""#706081"",""#5b7c65""]","147","false","[0.733,0.288,0.53,0.358]","3","0",""
"","","","","","two-step-trial","176","860724","0.0-153.0-0.0","","","","","","","","","[2,3]","0","2","526.0999999046326","0","[1680,939]","1","[0,1]","1","1","1151.2999999523163","1","1","[""#486ea7"",""#a75248""]","[""#706081"",""#5b7c65""]","148","false","[0.739,0.274,0.493,0.38]","3","0",""
"","","","","","two-step-trial","177","863701","0.0-154.0-0.0","","","","","","","","","[0,1]","0","0","531.2000000476837","1","[1680,939]","1","[0,1]","0","0","436.7999999523163","1","0","[""#486ea7"",""#a75248""]","[""#706081"",""#5b7c65""]","149","false","[0.736,0.271,0.496,0.399]","3","0",""
"","","","","","two-step-trial","178","866886","0.0-155.0-0.0","","","","","","","","","[0,1]","0","0","488.5","0","[1680,939]","1","[0,1]","0","0","690.1999999284744","1","0","[""#486ea7"",""#a75248""]","[""#706081"",""#5b7c65""]","150","false","[0.727,0.278,0.471,0.409]","3","0",""
"","","","","","two-step-instructions","179","871397","0.0-156.0","4509.600000023842","","","[{""page_index"":0,""viewing_time"":4509.299999952316}]","","","","","","","","","","","","","","","","","","","","","","","","",""
"","","","","","two-step-comprehension","180","877867","0.0-157.0","6468.900000095367","","","","[""blue"",""red""]","0","","","","","","","","","","","","","","","","","","","","","","","[{""event"":""fullscreenenter"",""trial"":1,""time"":2577},{""event"":""fullscreenexit"",""trial"":2,""time"":10647},{""event"":""blur"",""trial"":46,""time"":334551},{""event"":""focus"",""trial"":46,""time"":342733}]"
