"success","timeout","failed_images","failed_audio","failed_video","trial_type","trial_index","time_elapsed","internal_node_id","rt","stimulus","response","view_history","responses","num_errors","quiz","phase","state_2_ids","state_2_key","state_2_choice","state_2_rt","outcome","screen_resolution","minimum_resolution","state_1_ids","state_1_key","state_1_choice","state_1_rt","transition","state","rocket_colors","planet_colors","trial","missing","drifts","drift_ix","browser_interactions","interactions"
"true","false","[]","[]","[]","preload","0","171","0.0-0.0","","","","","","","","","","","","","","","","","","","","","","","","","","","","",""
"true","","","","","fullscreen","1","2900","0.0-1.0","","","","","","","","","","","","","","","","","","","","","","","","","","","","",""
"","","","","","html-keyboard-response","2","8479","0.0-2.0","5577.099999964237","<p>You are starting a demo of the <b>two-step task.</b></p><p>To see the instructions, press the ""1"" key. To skip them, press the ""2"" key.</p>","1","","","","","","","","","","","","","","","","","","","","","","","","","",""
"","","","","","two-step-instructions","3","121750","0.0-3.0-0.0-1.0","113269.19999998808","","","[{""page_index"":0,""viewing_time"":2371.100000023842},{""page_index"":1,""viewing_time"":5957.699999988079},{""page_index"":2,""viewing_time"":2524.399999976158},{""page_index"":3,""viewing_time"":6951.800000011921},{""page_index"":4,""viewing_time"":2524.100000023842},{""page_index"":5,""viewing_time"":2608.699999988079},{""page_index"":6,""viewing_time"":887.1999999880791},{""page_index"":7,""viewing_time"":2930.100000023842},{""page_index"":8,""viewing_time"":5924.599999964237},{""page_index"":9,""viewing_time"":74500.60000002384},{""page_index"":10,""viewing_time"":6088.399999976158}]","","","","","","","","","","","","","","","","","","","","","","","","",""
"","","","","","two-step-comprehension","4","139754","0.0-3.0-0.0-2.0","18001.399999976158","","","","[""a/d keys"",""False"",""False""]","3","1","","","","","","","","","","","","","","","","","","","","","",""
"","","","","","two-step-instructions","5","141556","0.0-3.0-0.1-0.1-0.1","1797.8999999761581","","","[{""page_index"":0,""viewing_time"":1797.6000000238419}]","","","","","","","","","","","","","","","","","","","","","","","","",""
"","","","","","two-step-instructions","6","145366","0.0-3.0-0.1-1.1","3808.599999964237","","","[{""page_index"":0,""viewing_time"":1476.8999999761581},{""page_index"":1,""viewing_time"":734.6999999880791},{""page_index"":2,""viewing_time"":189.69999998807907},{""page_index"":3,""viewing_time"":181.10000002384186},{""page_index"":4,""viewing_time"":173.89999997615814},{""page_index"":5,""viewing_time"":244},{""page_index"":6,""viewing_time"":202},{""page_index"":7,""viewing_time"":418.5},{""page_index"":8,""viewing_time"":187.4000000357628}]","","","","","","","","","","","","","","","","","","","","","","","","",""
"","","","","","two-step-comprehension","7","148343","0.0-3.0-0.1-2.1","2975.699999988079","","","","[""1/0 keys"",""False"",""False""]","3","1","","","","","","","","","","","","","","","","","","","","","",""
"","","","","","two-step-instructions","8","365707","0.0-3.0-0.2-0.2-0.2","217361.89999997616","","","[{""page_index"":0,""viewing_time"":217361.5}]","","","","","","","","","","","","","","","","","","","","","","","","",""
"","","","","","two-step-instructions","9","382413","0.0-3.0-0.2-1.2","16704.5","","","[{""page_index"":0,""viewing_time"":851.1999999880791},{""page_index"":1,""viewing_time"":1250.199999988079},{""page_index"":2,""viewing_time"":1497.2000000476837},{""page_index"":3,""viewing_time"":696},{""page_index"":4,""viewing_time"":796.1999999880791},{""page_index"":5,""viewing_time"":1524.800000011921},{""page_index"":4,""viewing_time"":456.5999999642372},{""page_index"":3,""viewing_time"":444.5},{""page_index"":2,""viewing_time"":1889.5},{""page_index"":3,""viewing_time"":453},{""page_index"":4,""viewing_time"":584.1000000238419},{""page_index"":5,""viewing_time"":1778},{""page_index"":6,""viewing_time"":1153},{""page_index"":7,""viewing_time"":1679.199999988079},{""page_index"":8,""viewing_time"":1650.699999988079}]","","","","","","","","","","","","","","","","","","","","","","","","",""
"","","","","","two-step-comprehension","10","388648","0.0-3.0-0.2-2.2","6232.800000011921","","","","[""left/right arrow keys"",""True"",""False""]","1","1","","","","","","","","","","","","","","","","","","","","","",""
"","","","","","two-step-instructions","11","389721","0.0-3.0-0.3-0.3-0.3","1070.4000000357628","","","[{""page_index"":0,""viewing_time"":1070}]","","","","","","","","","","","","","","","","","","","","","","","","",""
"","","","","","two-step-instructions","12","391672","0.0-3.0-0.3-1.3","1948.6000000238419","","","[{""page_index"":0,""viewing_time"":478.30000001192093},{""page_index"":1,""viewing_time"":202.69999998807907},{""page_index"":2,""viewing_time"":165.10000002384186},{""page_index"":3,""viewing_time"":155.80000001192093},{""page_index"":4,""viewing_time"":170.29999995231628},{""page_index"":5,""viewing_time"":172.9000000357628},{""page_index"":6,""viewing_time"":181.19999998807907},{""page_index"":7,""viewing_time"":199.89999997615814},{""page_index"":8,""viewing_time"":222.10000002384186}]","","","","","","","","","","","","","","","","","","","","","","","","",""
"","","","","","two-step-comprehension","13","397592","0.0-3.0-0.3-2.3","5917.800000011921","","","","[""a/d keys"",""True"",""True""]","1","1","","","","","","","","","","","","","","","","","","","","","",""
"","","","","","two-step-instructions","14","398664","0.0-3.0-0.4-0.4-0.4","1069.699999988079","","","[{""page_index"":0,""viewing_time"":1069.2999999523163}]","","","","","","","","","","","","","","","","","","","","","","","","",""
"","","","","","two-step-instructions","15","400457","0.0-3.0-0.4-1.4","1791","","","[{""page_index"":0,""viewing_time"":609},{""page_index"":1,""viewing_time"":175},{""page_index"":2,""viewing_time"":138.19999998807907},{""page_index"":3,""viewing_time"":138.89999997615814},{""page_index"":4,""viewing_time"":140.5},{""page_index"":5,""viewing_time"":141.4000000357628},{""page_index"":6,""viewing_time"":170},{""page_index"":7,""viewing_time"":128.29999995231628},{""page_index"":8,""viewing_time"":149.4000000357628}]","","","","","","","","","","","","","","","","","","","","","","","","",""
"","","","","","two-step-comprehension","16","403863","0.0-3.0-0.4-2.4","3404.2000000476837","","","","[""left/right arrow keys"",""True"",""True""]","0","1","","","","","","","","","","","","","","","","","","","","","",""
"","","","","","two-step-instructions","17","800083","0.0-3.0-1.0-0.0-0.0","396217.5","","","[{""page_index"":0,""viewing_time"":396217.10000002384}]","","","","instructions_1b","","","","","","","","","","","","","","","","","","","","",""
"","","","","","alien-practice","18","802972","0.0-3.0-1.0-1.0-0.0","","","","","","","","","[0,1]","1","1","676.8000000119209","1","[1920,947]","1","","","","","","","","","","","","","",""
"","","","","","alien-practice","19","805252","0.0-3.0-1.0-2.0-0.0","","","","","","","","","[0,1]","1","1","58.09999996423721","0","[1920,947]","1","","","","","","","","","","","","","",""
"","","","","","alien-practice","20","812977","0.0-3.0-1.0-3.0-0.0","","","","","","","","","[0,1]","1","1","5508.399999976158","1","[1920,947]","1","","","","","","","","","","","","","",""
"","","","","","alien-practice","21","815599","0.0-3.0-1.0-4.0-0.0","","","","","","","","","[0,1]","1","1","399.10000002384186","1","[1920,947]","1","","","","","","","","","","","","","",""
"","","","","","alien-practice","22","818221","0.0-3.0-1.0-5.0-0.0","","","","","","","","","[0,1]","1","1","403.2999999523163","1","[1920,947]","1","","","","","","","","","","","","","",""
"","","","","","two-step-instructions","23","1595539","0.0-3.0-2.0-1.0","777315.8000000119","","","[{""page_index"":0,""viewing_time"":2430.800000011921},{""page_index"":1,""viewing_time"":780.6999999880791},{""page_index"":2,""viewing_time"":770231.6999999881},{""page_index"":3,""viewing_time"":860.6999999880791},{""page_index"":4,""viewing_time"":926.3000000119209},{""page_index"":5,""viewing_time"":2085.100000023842}]","","","","","","","","","","","","","","","","","","","","","","","","",""
"","","","","","two-step-comprehension","24","1601415","0.0-3.0-2.0-2.0","5873.5","","","","[""left/right arrow keys"",""False"",""True""]","0","2","","","","","","","","","","","","","","","","","","","","","",""
"","","","","","two-step-instructions","25","2480912","0.0-3.0-3.0-0.0","879494.5","","","[{""page_index"":0,""viewing_time"":875366.8000000119},{""page_index"":1,""viewing_time"":2488.399999976158},{""page_index"":2,""viewing_time"":1639}]","","","","","","","","","","","","","","","","","","","","","","","","",""
"","","","","","two-step-trial","26","2489338","0.0-3.0-3.0-1.0-0.0","","","","","","","","","[0,1]","1","1","3832.099999964237","0","[1920,947]","1","[0,1]","0","0","2581.5","1","0","[""#a75248"",""#486ea7""]","[""#5b7c65"",""#706081""]","0","false","","","",""
"","","","","","two-step-trial","27","2492956","0.0-3.0-3.0-1.0-0.1","","","","","","","","","[2,3]","1","3","743.2999999523163","1","[1920,947]","1","[0,1]","1","1","852.6000000238419","1","1","[""#a75248"",""#486ea7""]","[""#5b7c65"",""#706081""]","0","false","","","",""
"","","","","","two-step-trial","28","2496926","0.0-3.0-3.0-1.0-0.2","","","","","","","","","[0,1]","0","0","1065.6000000238419","1","[1920,947]","1","[0,1]","1","1","877.4000000357628","0","0","[""#a75248"",""#486ea7""]","[""#5b7c65"",""#706081""]","0","false","","","",""
"","","","","","two-step-trial","29","2500448","0.0-3.0-3.0-1.0-0.3","","","","","","","","","[2,3]","1","3","1047.6000000238419","1","[1920,947]","1","[0,1]","0","0","459.80000001192093","0","1","[""#a75248"",""#486ea7""]","[""#5b7c65"",""#706081""]","0","false","","","",""
"","","","","","two-step-trial","30","2504080","0.0-3.0-3.0-1.0-0.4","","","","","","","","","[2,3]","1","3","902.5999999642372","0","[1920,947]","1","[0,1]","1","1","716.1000000238419","1","1","[""#a75248"",""#486ea7""]","[""#5b7c65"",""#706081""]","0","false","","","",""
"","","","","","two-step-trial","31","2507643","0.0-3.0-3.0-1.0-0.5","","","","","","","","","[2,3]","1","3","685.4000000357628","1","[1920,947]","1","[0,1]","1","1","858.9000000357628","1","1","[""#a75248"",""#486ea7""]","[""#5b7c65"",""#706081""]","0","false","","","",""
"","","","","","two-step-trial","32","2511147","0.0-3.0-3.0-1.0-0.6","","","","","","","","","[0,1]","1","1","1078.7000000476837","1","[1920,947]","1","[0,1]","0","0","408.39999997615814","1","0","[""#a75248"",""#486ea7""]","[""#5b7c65"",""#706081""]","0","false","","","",""
"","","","","","two-step-trial","33","2514139","0.0-3.0-3.0-1.0-0.7","","","","","","","","","[0,1]","1","1","569.5","0","[1920,947]","1","[0,1]","1","1","400","0","0","[""#a75248"",""#486ea7""]","[""#5b7c65"",""#706081""]","0","false","","","",""
"","","","","","two-step-trial","34","2517489","0.0-3.0-3.0-1.0-0.8","","","","","","","","","[0,1]","1","1","812.6000000238419","1","[1920,947]","1","[0,1]","0","0","521.0999999642372","1","0","[""#a75248"",""#486ea7""]","[""#5b7c65"",""#706081""]","0","false","","","",""
"","","","","","two-step-trial","35","2520487","0.0-3.0-3.0-1.0-0.9","","","","","","","","","[0,1]","1","1","498.80000001192093","1","[1920,947]","1","[0,1]","0","0","475.4000000357628","1","0","[""#a75248"",""#486ea7""]","[""#5b7c65"",""#706081""]","0","false","","","",""
"","","","","","two-step-instructions","36","2529581","0.0-3.0-4.0-1.0","9092.699999988079","","","[{""page_index"":0,""viewing_time"":1942.2999999523163},{""page_index"":1,""viewing_time"":1947},{""page_index"":2,""viewing_time"":762.8000000119209},{""page_index"":3,""viewing_time"":1745.1000000238419},{""page_index"":4,""viewing_time"":1794.8999999761581},{""page_index"":5,""viewing_time"":518.1999999880791},{""page_index"":6,""viewing_time"":382.10000002384186}]","","","","","","","","","","","","","","","","","","","","","","","","",""
"","","","","","two-step-comprehension","37","2532477","0.0-3.0-4.0-2.0","2895.5","","","","[""False"",""True"",""False""]","3","3","","","","","","","","","","","","","","","","","","","","","",""
"","","","","","two-step-instructions","38","2533551","0.0-3.0-4.1-0.1-0.1","1072.1000000238419","","","[{""page_index"":0,""viewing_time"":1071.9000000357628}]","","","","","","","","","","","","","","","","","","","","","","","","",""
"","","","","","two-step-instructions","39","2539753","0.0-3.0-4.1-1.1","6200.199999988079","","","[{""page_index"":0,""viewing_time"":939.6999999880791},{""page_index"":1,""viewing_time"":737.9000000357628},{""page_index"":2,""viewing_time"":917},{""page_index"":3,""viewing_time"":1787.0999999642372},{""page_index"":4,""viewing_time"":1251.9000000357628},{""page_index"":5,""viewing_time"":566.3999999761581}]","","","","","","","","","","","","","","","","","","","","","","","","",""
"","","","","","two-step-comprehension","40","2547790","0.0-3.0-4.1-2.1","8035.800000011921","","","","[""True"",""False"",""False""]","1","3","","","","","","","","","","","","","","","","","","","","","",""
"","","","","","two-step-instructions","41","2548748","0.0-3.0-4.2-0.2-0.2","957.2000000476837","","","[{""page_index"":0,""viewing_time"":957}]","","","","","","","","","","","","","","","","","","","","","","","","",""
"","","","","","two-step-instructions","42","2551196","0.0-3.0-4.2-1.2","2447.2999999523163","","","[{""page_index"":0,""viewing_time"":716},{""page_index"":1,""viewing_time"":445},{""page_index"":2,""viewing_time"":346.69999998807907},{""page_index"":3,""viewing_time"":344.80000001192093},{""page_index"":4,""viewing_time"":277.2999999523163},{""page_index"":5,""viewing_time"":317.10000002384186}]","","","","","","","","","","","","","","","","","","","","","","","","",""
"","","","","","two-step-comprehension","43","2555340","0.0-3.0-4.2-2.2","4142.699999988079","","","","[""True"",""False"",""False""]","1","3","","","","","","","","","","","","","","","","","","","","","",""
"","","","","","two-step-instructions","44","2556303","0.0-3.0-4.3-0.3-0.3","960.7000000476837","","","[{""page_index"":0,""viewing_time"":960.4000000357628}]","","","","","","","","","","","","","","","","","","","","","","","","",""
"","","","","","two-step-instructions","45","4829156","0.0-3.0-4.3-1.3","2272852.399999976","","","[{""page_index"":0,""viewing_time"":273.69999998807907},{""page_index"":1,""viewing_time"":146.80000001192093},{""page_index"":2,""viewing_time"":115.09999996423721},{""page_index"":3,""viewing_time"":2271237.7000000477},{""page_index"":4,""viewing_time"":726.8999999761581},{""page_index"":5,""viewing_time"":351.89999997615814}]","","","","","","","","","","","","","","","","","","","","","","","","",""
"","","","","","two-step-comprehension","46","4843750","0.0-3.0-4.3-2.3","14592","","","","[""False"",""False"",""False""]","2","3","","","","","","","","","","","","","","","","","","","","","",""
"","","","","","two-step-instructions","47","4848101","0.0-4.0","4350","","","[{""page_index"":0,""viewing_time"":1258},{""page_index"":1,""viewing_time"":1965},{""page_index"":2,""viewing_time"":1126.800000011921}]","","","","","","","","","","","","","","","","","","","","","","","","",""
"","","","","","two-step-trial","48","4853973","0.0-5.0-0.0","","","","","","","","","[0,1]","0","0","1152.1000000238419","0","[1920,947]","1","[0,1]","0","0","2693.699999988079","1","0","[""#48a782"",""#955db9""]","[""#7f5d5d"",""#5f6f81""]","1","false","[0.412,0.317,0.453,0.743]","2","0",""
"","","","","","two-step-trial","49","4857991","0.0-6.0-0.0","","","","","","","","","[0,1]","1","1","593.8999999761581","1","[1920,947]","1","[0,1]","0","0","1398.4000000357628","1","0","[""#48a782"",""#955db9""]","[""#7f5d5d"",""#5f6f81""]","2","false","[0.402,0.305,0.461,0.702]","2","0",""
"","","","","","two-step-trial","50","4863509","0.0-7.0-0.0","","","","","","","","","[2,3]","0","2","1275.5","1","[1920,947]","1","[0,1]","1","1","2223.300000011921","1","1","[""#48a782"",""#955db9""]","[""#7f5d5d"",""#5f6f81""]","3","false","[0.373,0.327,0.445,0.732]","2","0",""
"","","","","","two-step-trial","51","4867787","0.0-8.0-0.0","","","","","","","","","[2,3]","0","2","868.2999999523163","1","[1920,947]","1","[0,1]","0","0","1393.6000000238419","0","1","[""#48a782"",""#955db9""]","[""#7f5d5d"",""#5f6f81""]","4","false","[0.381,0.303,0.418,0.736]","2","0",""
"","","","","","two-step-trial","52","4875369","0.0-9.0-0.0","","","","","","","","","[0,1]","1","1","5200.700000047684","0","[1920,947]","1","[0,1]","0","0","370.89999997615814","1","0","[""#48a782"",""#955db9""]","[""#7f5d5d"",""#5f6f81""]","5","false","[0.366,0.363,0.401,0.709]","2","0",""
"","","","","","two-step-trial","53","4878617","0.0-10.0-0.0","","","","","","","","","[2,3]","0","2","639.7000000476837","0","[1920,947]","1","[0,1]","0","0","598.5","0","1","[""#48a782"",""#955db9""]","[""#7f5d5d"",""#5f6f81""]","6","false","[0.393,0.368,0.383,0.711]","2","0",""
"","","","","","two-step-trial","54","4881923","0.0-11.0-0.0","","","","","","","","","[0,1]","0","0","697.9000000357628","1","[1920,947]","1","[0,1]","1","1","592.3999999761581","0","0","[""#48a782"",""#955db9""]","[""#7f5d5d"",""#5f6f81""]","7","false","[0.4,0.405,0.425,0.678]","2","0",""
"","","","","","two-step-trial","55","4884921","0.0-12.0-0.0","","","","","","","","","[0,1]","0","0","549.6999999880791","0","[1920,947]","1","[0,1]","0","0","436.0999999642372","1","0","[""#48a782"",""#955db9""]","[""#7f5d5d"",""#5f6f81""]","8","false","[0.383,0.388,0.415,0.699]","2","0",""
"","","","","","two-step-trial","56","4888023","0.0-13.0-0.0","","","","","","","","","[0,1]","1","1","447.60000002384186","1","[1920,947]","1","[0,1]","0","0","637.2999999523163","1","0","[""#48a782"",""#955db9""]","[""#7f5d5d"",""#5f6f81""]","9","false","[0.347,0.439,0.405,0.713]","2","0",""
"","","","","","two-step-trial","57","4891595","0.0-14.0-0.0","","","","","","","","","[0,1]","1","1","604.1000000238419","1","[1920,947]","1","[0,1]","1","1","945.1000000238419","0","0","[""#48a782"",""#955db9""]","[""#7f5d5d"",""#5f6f81""]","10","false","[0.367,0.459,0.46,0.731]","2","0",""
"","","","","","two-step-trial","58","4894744","0.0-15.0-0.0","","","","","","","","","[0,1]","1","1","793.3999999761581","1","[1920,947]","1","[0,1]","0","0","343.5999999642372","1","0","[""#48a782"",""#955db9""]","[""#7f5d5d"",""#5f6f81""]","11","false","[0.397,0.451,0.461,0.701]","2","0",""
"","","","","","two-step-trial","59","4897477","0.0-16.0-0.0","","","","","","","","","[2,3]","0","2","476.89999997615814","0","[1920,947]","1","[0,1]","1","1","231.4000000357628","1","1","[""#48a782"",""#955db9""]","[""#7f5d5d"",""#5f6f81""]","12","false","[0.357,0.426,0.459,0.707]","2","0",""
"","","","","","two-step-trial","60","4900539","0.0-17.0-0.0","","","","","","","","","[2,3]","1","3","650","1","[1920,947]","1","[0,1]","1","1","391.30000001192093","1","1","[""#48a782"",""#955db9""]","[""#7f5d5d"",""#5f6f81""]","13","false","[0.337,0.398,0.428,0.721]","2","0",""
"","","","","","two-step-trial","61","4903641","0.0-18.0-0.0","","","","","","","","","[0,1]","1","1","749.8999999761581","0","[1920,947]","1","[0,1]","0","0","334.60000002384186","1","0","[""#48a782"",""#955db9""]","[""#7f5d5d"",""#5f6f81""]","14","false","[0.283,0.408,0.384,0.719]","2","0",""
"","","","","","two-step-trial","62","4906609","0.0-19.0-0.0","","","","","","","","","[0,1]","0","0","640","0","[1920,947]","1","[0,1]","0","0","317.7000000476837","1","0","[""#48a782"",""#955db9""]","[""#7f5d5d"",""#5f6f81""]","15","false","[0.295,0.37,0.375,0.738]","2","0",""
"","","","","","two-step-trial","63","4909560","0.0-20.0-0.0","","","","","","","","","[0,1]","0","0","631.1999999880791","0","[1920,947]","1","[0,1]","0","0","297.69999998807907","1","0","[""#48a782"",""#955db9""]","[""#7f5d5d"",""#5f6f81""]","16","false","[0.305,0.343,0.325,0.713]","2","0",""
"","","","","","two-step-trial","64","4912573","0.0-21.0-0.0","","","","","","","","","[2,3]","1","3","794.3999999761581","1","[1920,947]","1","[0,1]","0","0","193.70000004768372","0","1","[""#48a782"",""#955db9""]","[""#7f5d5d"",""#5f6f81""]","17","false","[0.305,0.313,0.334,0.705]","2","0",""
"","","","","","two-step-trial","65","4915383","0.0-22.0-0.0","","","","","","","","","[2,3]","1","3","577.3999999761581","0","[1920,947]","1","[0,1]","1","1","219.10000002384186","1","1","[""#48a782"",""#955db9""]","[""#7f5d5d"",""#5f6f81""]","18","false","[0.316,0.314,0.353,0.728]","2","0",""
"","","","","","two-step-trial","66","4919169","0.0-23.0-0.0","","","","","","","","","[0,1]","1","1","1533.7000000476837","1","[1920,947]","1","[0,1]","0","0","236.70000004768372","1","0","[""#48a782"",""#955db9""]","[""#7f5d5d"",""#5f6f81""]","19","false","[0.317,0.335,0.368,0.745]","2","0",""
"","","","","","two-step-trial","67","4922104","0.0-24.0-0.0","","","","","","","","","[2,3]","1","3","687.8000000119209","1","[1920,947]","1","[0,1]","1","1","237.4000000357628","1","1","[""#48a782"",""#955db9""]","[""#7f5d5d"",""#5f6f81""]","20","false","[0.307,0.313,0.421,0.737]","2","0",""
"","","","","","two-step-trial","68","4924913","0.0-25.0-0.0","","","","","","","","","[2,3]","1","3","478.5999999642372","1","[1920,947]","1","[0,1]","1","1","319.80000001192093","1","1","[""#48a782"",""#955db9""]","[""#7f5d5d"",""#5f6f81""]","21","false","[0.31,0.305,0.401,0.745]","2","0",""
"","","","","","two-step-trial","69","4928527","0.0-26.0-0.0","","","","","","","","","[0,1]","1","1","950.0999999642372","0","[1920,947]","1","[0,1]","1","1","641.5999999642372","0","0","[""#48a782"",""#955db9""]","[""#7f5d5d"",""#5f6f81""]","22","false","[0.326,0.31,0.391,0.735]","2","0",""
"","","","","","two-step-trial","70","4932062","0.0-27.0-0.0","","","","","","","","","[0,1]","0","0","913.3000000119209","0","[1920,947]","1","[0,1]","0","0","590.9000000357628","1","0","[""#48a782"",""#955db9""]","[""#7f5d5d"",""#5f6f81""]","23","false","[0.331,0.302,0.379,0.741]","2","0",""
"","","","","","two-step-trial","71","4935364","0.0-28.0-0.0","","","","","","","","","[2,3]","1","3","806.7000000476837","1","[1920,947]","1","[0,1]","0","0","467.0999999642372","0","1","[""#48a782"",""#955db9""]","[""#7f5d5d"",""#5f6f81""]","24","false","[0.358,0.323,0.393,0.738]","2","0",""
"","","","","","two-step-trial","72","4938264","0.0-29.0-0.0","","","","","","","","","[2,3]","1","3","578.6999999880791","1","[1920,947]","1","[0,1]","1","1","305.19999998807907","1","1","[""#48a782"",""#955db9""]","[""#7f5d5d"",""#5f6f81""]","25","false","[0.342,0.299,0.368,0.724]","2","0",""
"","","","","","two-step-trial","73","4941182","0.0-30.0-0.0","","","","","","","","","[2,3]","1","3","601.5","1","[1920,947]","1","[0,1]","1","1","289.4000000357628","1","1","[""#48a782"",""#955db9""]","[""#7f5d5d"",""#5f6f81""]","26","false","[0.362,0.294,0.373,0.738]","2","0",""
"","","","","","two-step-trial","74","4943989","0.0-31.0-0.0","","","","","","","","","[2,3]","1","3","581.8000000119209","1","[1920,947]","1","[0,1]","1","1","213.60000002384186","1","1","[""#48a782"",""#955db9""]","[""#7f5d5d"",""#5f6f81""]","27","false","[0.332,0.286,0.389,0.683]","2","0",""
"","","","","","two-step-trial","75","4946506","0.0-32.0-0.0","","","","","","","","","[2,3]","1","3","313.5999999642372","1","[1920,947]","1","[0,1]","1","1","189.5","1","1","[""#48a782"",""#955db9""]","[""#7f5d5d"",""#5f6f81""]","28","false","[0.34,0.303,0.383,0.689]","2","0",""
"","","","","","two-step-trial","76","4949081","0.0-33.0-0.0","","","","","","","","","[2,3]","1","3","376.30000001192093","0","[1920,947]","1","[0,1]","1","1","181.60000002384186","1","1","[""#48a782"",""#955db9""]","[""#7f5d5d"",""#5f6f81""]","29","false","[0.317,0.302,0.385,0.679]","2","0",""
"","","","","","two-step-trial","77","4951831","0.0-34.0-0.0","","","","","","","","","[2,3]","0","2","389","1","[1920,947]","1","[0,1]","1","1","337.80000001192093","1","1","[""#48a782"",""#955db9""]","[""#7f5d5d"",""#5f6f81""]","30","false","[0.353,0.346,0.414,0.681]","2","0",""
"","","","","","two-step-trial","78","4954611","0.0-35.0-0.0","","","","","","","","","[2,3]","0","2","504.19999998807907","1","[1920,947]","1","[0,1]","1","1","263","1","1","[""#48a782"",""#955db9""]","[""#7f5d5d"",""#5f6f81""]","31","false","[0.325,0.331,0.414,0.647]","2","0",""
"","","","","","two-step-trial","79","4957203","0.0-36.0-0.0","","","","","","","","","[2,3]","0","2","374.39999997615814","1","[1920,947]","1","[0,1]","1","1","205.19999998807907","1","1","[""#48a782"",""#955db9""]","[""#7f5d5d"",""#5f6f81""]","32","false","[0.328,0.33,0.383,0.663]","2","0",""
"","","","","","two-step-trial","80","4960061","0.0-37.0-0.0","","","","","","","","","[2,3]","0","2","609.0999999642372","0","[1920,947]","1","[0,1]","0","0","233","0","1","[""#48a782"",""#955db9""]","[""#7f5d5d"",""#5f6f81""]","33","false","[0.322,0.332,0.362,0.633]","2","0",""
"","","","","","two-step-trial","81","4965158","0.0-38.0-0.0","","","","","","","","","[0,1]","0","0","2616.300000011921","0","[1920,947]","1","[0,1]","0","0","468.5","1","0","[""#48a782"",""#955db9""]","[""#7f5d5d"",""#5f6f81""]","34","false","[0.322,0.307,0.363,0.617]","2","0",""
"","","","","","two-step-trial","82","4969912","0.0-39.0-0.0","","","","","","","","","[2,3]","1","3","2355","1","[1920,947]","1","[0,1]","0","0","377.30000001192093","0","1","[""#48a782"",""#955db9""]","[""#7f5d5d"",""#5f6f81""]","35","false","[0.297,0.336,0.333,0.65]","2","0",""
"","","","","","two-step-trial","83","4972935","0.0-40.0-0.0","","","","","","","","","[2,3]","1","3","652.3999999761581","1","[1920,947]","1","[0,1]","0","0","352.0999999642372","0","1","[""#48a782"",""#955db9""]","[""#7f5d5d"",""#5f6f81""]","36","false","[0.326,0.343,0.331,0.633]","2","0",""
"","","","","","two-step-trial","84","4975635","0.0-41.0-0.0","","","","","","","","","[2,3]","1","3","406.60000002384186","0","[1920,947]","1","[0,1]","0","0","279.30000001192093","0","1","[""#48a782"",""#955db9""]","[""#7f5d5d"",""#5f6f81""]","37","false","[0.318,0.324,0.327,0.612]","2","0",""
"","","","","","two-step-trial","85","4978763","0.0-42.0-0.0","","","","","","","","","[0,1]","0","0","870.3000000119209","0","[1920,947]","1","[0,1]","1","1","237.5999999642372","0","0","[""#48a782"",""#955db9""]","[""#7f5d5d"",""#5f6f81""]","38","false","[0.304,0.324,0.319,0.591]","2","0",""
"","","","","","two-step-trial","86","4981911","0.0-43.0-0.0","","","","","","","","","[0,1]","1","1","676.7000000476837","0","[1920,947]","1","[0,1]","1","1","454.89999997615814","0","0","[""#48a782"",""#955db9""]","[""#7f5d5d"",""#5f6f81""]","39","false","[0.283,0.362,0.351,0.561]","2","0",""
"","","","","","two-step-trial","87","4987897","0.0-44.0-0.0","","","","","","","","","[2,3]","1","3","3509.699999988079","0","[1920,947]","1","[0,1]","1","1","460.2000000476837","1","1","[""#48a782"",""#955db9""]","[""#7f5d5d"",""#5f6f81""]","40","false","[0.295,0.387,0.331,0.546]","2","0",""
"","","","","","two-step-trial","88","4991061","0.0-45.0-0.0","","","","","","","","","[2,3]","0","2","891.8999999761581","0","[1920,947]","1","[0,1]","1","1","243.0999999642372","1","1","[""#48a782"",""#955db9""]","[""#7f5d5d"",""#5f6f81""]","41","false","[0.293,0.385,0.33,0.584]","2","0",""
"","","","","","two-step-trial","89","4993978","0.0-46.0-0.0","","","","","","","","","[0,1]","0","0","639.1999999880791","0","[1920,947]","1","[0,1]","1","1","255.10000002384186","0","0","[""#48a782"",""#955db9""]","[""#7f5d5d"",""#5f6f81""]","42","false","[0.304,0.383,0.318,0.562]","2","0",""
"","","","","","two-step-trial","90","4996818","0.0-47.0-0.0","","","","","","","","","[2,3]","1","3","692.8999999761581","0","[1920,947]","1","[0,1]","1","1","139.19999998807907","1","1","[""#48a782"",""#955db9""]","[""#7f5d5d"",""#5f6f81""]","43","false","[0.318,0.398,0.315,0.576]","2","0",""
"","","","","","two-step-trial","91","4999472","0.0-48.0-0.0","","","","","","","","","[2,3]","0","2","422","0","[1920,947]","1","[0,1]","1","1","219.30000001192093","1","1","[""#48a782"",""#955db9""]","[""#7f5d5d"",""#5f6f81""]","44","false","[0.321,0.371,0.348,0.616]","2","0",""
"","","","","","two-step-trial","92","5002632","0.0-49.0-0.0","","","","","","","","","[2,3]","1","3","798.1000000238419","1","[1920,947]","1","[0,1]","1","1","341.39999997615814","1","1","[""#48a782"",""#955db9""]","[""#7f5d5d"",""#5f6f81""]","45","false","[0.319,0.418,0.367,0.598]","2","0",""
"","","","","","two-step-trial","93","5005580","0.0-50.0-0.0","","","","","","","","","[0,1]","1","1","571","0","[1920,947]","1","[0,1]","1","1","351.39999997615814","0","0","[""#48a782"",""#955db9""]","[""#7f5d5d"",""#5f6f81""]","46","false","[0.326,0.44,0.366,0.588]","2","0",""
"","","","","","two-step-trial","94","5008405","0.0-51.0-0.0","","","","","","","","","[2,3]","1","3","560.6000000238419","0","[1920,947]","1","[0,1]","1","1","235","1","1","[""#48a782"",""#955db9""]","[""#7f5d5d"",""#5f6f81""]","47","false","[0.315,0.46,0.378,0.597]","2","0",""
"","","","","","two-step-trial","95","5011070","0.0-52.0-0.0","","","","","","","","","[0,1]","0","0","646.8000000119209","0","[1920,947]","1","[0,1]","1","1","8.200000047683716","0","0","[""#48a782"",""#955db9""]","[""#7f5d5d"",""#5f6f81""]","48","false","[0.281,0.476,0.36,0.571]","2","0",""
"","","","","","two-step-trial","96","5013709","0.0-53.0-0.0","","","","","","","","","[2,3]","1","3","524.5999999642372","1","[1920,947]","1","[0,1]","1","1","91.5","1","1","[""#48a782"",""#955db9""]","[""#7f5d5d"",""#5f6f81""]","49","false","[0.254,0.439,0.383,0.579]","2","0",""
"","","","","","two-step-trial","97","5016347","0.0-54.0-0.0","","","","","","","","","[2,3]","1","3","464.39999997615814","1","[1920,947]","1","[0,1]","0","0","151.30000001192093","0","1","[""#48a782"",""#955db9""]","[""#7f5d5d"",""#5f6f81""]","50","false","[0.303,0.471,0.392,0.592]","2","0",""
"","","","","","two-step-trial","98","5019153","0.0-55.0-0.0","","","","","","","","","[0,1]","0","0","591.3000000119209","1","[1920,947]","1","[0,1]","0","0","192.10000002384186","1","0","[""#48a782"",""#955db9""]","[""#7f5d5d"",""#5f6f81""]","51","false","[0.274,0.41,0.377,0.587]","2","0",""
"","","","","","two-step-trial","99","5022054","0.0-56.0-0.0","","","","","","","","","[2,3]","1","3","682.8999999761581","0","[1920,947]","1","[0,1]","0","0","201.60000002384186","0","1","[""#48a782"",""#955db9""]","[""#7f5d5d"",""#5f6f81""]","52","false","[0.29,0.413,0.363,0.572]","2","0",""
"","","","","","two-step-trial","100","5024679","0.0-57.0-0.0","","","","","","","","","[0,1]","0","0","398.9000000357628","0","[1920,947]","1","[0,1]","0","0","215.5","1","0","[""#48a782"",""#955db9""]","[""#7f5d5d"",""#5f6f81""]","53","false","[0.292,0.425,0.318,0.522]","2","0",""
"","","","","","two-step-trial","101","5027955","0.0-58.0-0.0","","","","","","","","","[2,3]","1","3","944.5","1","[1920,947]","1","[0,1]","1","1","305.60000002384186","1","1","[""#48a782"",""#955db9""]","[""#7f5d5d"",""#5f6f81""]","54","false","[0.284,0.449,0.332,0.552]","2","0",""
"","","","","","two-step-trial","102","5030762","0.0-59.0-0.0","","","","","","","","","[2,3]","1","3","474.89999997615814","1","[1920,947]","1","[0,1]","0","0","305.80000001192093","0","1","[""#48a782"",""#955db9""]","[""#7f5d5d"",""#5f6f81""]","55","false","[0.253,0.41,0.344,0.579]","2","0",""
"","","","","","two-step-trial","103","5033539","0.0-60.0-0.0","","","","","","","","","[0,1]","1","1","431.30000001192093","1","[1920,947]","1","[0,1]","0","0","327.2000000476837","1","0","[""#48a782"",""#955db9""]","[""#7f5d5d"",""#5f6f81""]","56","false","[0.277,0.408,0.373,0.526]","2","0",""
"","","","","","two-step-trial","104","5036350","0.0-61.0-0.0","","","","","","","","","[2,3]","1","3","447.30000001192093","1","[1920,947]","1","[0,1]","1","1","334.69999998807907","1","1","[""#48a782"",""#955db9""]","[""#7f5d5d"",""#5f6f81""]","57","false","[0.252,0.418,0.356,0.521]","2","0",""
"","","","","","two-step-trial","105","5039517","0.0-62.0-0.0","","","","","","","","","[0,1]","1","1","726.4000000357628","1","[1920,947]","1","[0,1]","1","1","424.89999997615814","0","0","[""#48a782"",""#955db9""]","[""#7f5d5d"",""#5f6f81""]","58","false","[0.282,0.462,0.395,0.504]","2","0",""
"","","","","","two-step-trial","106","5042310","0.0-63.0-0.0","","","","","","","","","[0,1]","1","1","442.30000001192093","0","[1920,947]","1","[0,1]","1","1","323.5","0","0","[""#48a782"",""#955db9""]","[""#7f5d5d"",""#5f6f81""]","59","false","[0.297,0.475,0.39,0.498]","2","0",""
"","","","","","two-step-trial","107","5045151","0.0-64.0-0.0","","","","","","","","","[2,3]","1","3","410.5","1","[1920,947]","1","[0,1]","1","1","417.5","1","1","[""#48a782"",""#955db9""]","[""#7f5d5d"",""#5f6f81""]","60","false","[0.295,0.463,0.364,0.52]","2","0",""
"","","","","","two-step-trial","108","5048054","0.0-65.0-0.0","","","","","","","","","[0,1]","0","0","609.1999999880791","0","[1920,947]","1","[0,1]","0","0","276","1","0","[""#48a782"",""#955db9""]","[""#7f5d5d"",""#5f6f81""]","61","false","[0.295,0.433,0.355,0.543]","2","0",""
"","","","","","two-step-trial","109","5050940","0.0-66.0-0.0","","","","","","","","","[2,3]","1","3","549.5","1","[1920,947]","1","[0,1]","1","1","310.5","1","1","[""#48a782"",""#955db9""]","[""#7f5d5d"",""#5f6f81""]","62","false","[0.307,0.43,0.353,0.543]","2","0",""
"","","","","","two-step-trial","110","5053901","0.0-67.0-0.0","","","","","","","","","[2,3]","1","3","621.5999999642372","0","[1920,947]","1","[0,1]","1","1","324","1","1","[""#48a782"",""#955db9""]","[""#7f5d5d"",""#5f6f81""]","63","false","[0.353,0.426,0.367,0.529]","2","0",""
"","","","","","two-step-trial","111","5057324","0.0-68.0-0.0","","","","","","","","","[2,3]","0","2","508.39999997615814","0","[1920,947]","1","[0,1]","1","1","892","1","1","[""#48a782"",""#955db9""]","[""#7f5d5d"",""#5f6f81""]","64","false","[0.37,0.432,0.33,0.47]","2","0",""
"","","","","","two-step-trial","112","5060734","0.0-69.0-0.0","","","","","","","","","[0,1]","1","1","1077.8999999761581","1","[1920,947]","1","[0,1]","1","1","317.5999999642372","0","0","[""#48a782"",""#955db9""]","[""#7f5d5d"",""#5f6f81""]","65","false","[0.377,0.393,0.348,0.501]","2","0",""
"","","","","","two-step-trial","113","5063339","0.0-70.0-0.0","","","","","","","","","[2,3]","1","3","344.89999997615814","0","[1920,947]","1","[0,1]","1","1","252.10000002384186","1","1","[""#48a782"",""#955db9""]","[""#7f5d5d"",""#5f6f81""]","66","false","[0.345,0.371,0.258,0.459]","2","0",""
"","","","","","two-step-trial","114","5066244","0.0-71.0-0.0","","","","","","","","","[2,3]","0","2","638.3999999761581","0","[1920,947]","1","[0,1]","1","1","248.5","1","1","[""#48a782"",""#955db9""]","[""#7f5d5d"",""#5f6f81""]","67","false","[0.332,0.355,0.256,0.426]","2","0",""
"","","","","","two-step-trial","115","5069472","0.0-72.0-0.0","","","","","","","","","[2,3]","1","3","787.5999999642372","0","[1920,947]","1","[0,1]","0","0","429.4000000357628","0","1","[""#48a782"",""#955db9""]","[""#7f5d5d"",""#5f6f81""]","68","false","[0.331,0.398,0.311,0.426]","2","0",""
"","","","","","two-step-trial","116","5073065","0.0-73.0-0.0","","","","","","","","","[0,1]","1","1","989.1000000238419","0","[1920,947]","1","[0,1]","1","1","597.1999999880791","0","0","[""#48a782"",""#955db9""]","[""#7f5d5d"",""#5f6f81""]","69","false","[0.325,0.426,0.326,0.384]","2","0",""
"","","","","","two-step-trial","117","5076880","0.0-74.0-0.0","","","","","","","","","[2,3]","0","2","465.60000002384186","0","[1920,947]","1","[0,1]","1","1","1336.699999988079","1","1","[""#48a782"",""#955db9""]","[""#7f5d5d"",""#5f6f81""]","70","false","[0.293,0.475,0.305,0.375]","2","0",""
"","","","","","two-step-trial","118","5081926","0.0-75.0-0.0","","","","","","","","","[2,3]","1","3","2077.7000000476837","0","[1920,947]","1","[0,1]","1","1","953.1999999880791","1","1","[""#48a782"",""#955db9""]","[""#7f5d5d"",""#5f6f81""]","71","false","[0.268,0.51,0.303,0.365]","2","0",""
"","","","","","two-step-trial","119","5086462","0.0-76.0-0.0","","","","","","","","","[2,3]","0","2","2164","1","[1920,947]","1","[0,1]","1","1","345.4000000357628","1","1","[""#48a782"",""#955db9""]","[""#7f5d5d"",""#5f6f81""]","72","false","[0.294,0.507,0.326,0.359]","2","0",""
"","","","","","two-step-trial","120","5089411","0.0-77.0-0.0","","","","","","","","","[0,1]","0","0","651.9000000357628","1","[1920,947]","1","[0,1]","1","1","270.89999997615814","0","0","[""#48a782"",""#955db9""]","[""#7f5d5d"",""#5f6f81""]","73","false","[0.296,0.541,0.313,0.367]","2","0",""
"","","","","","two-step-trial","121","5093006","0.0-78.0-0.0","","","","","","","","","[2,3]","0","2","1324.0999999642372","0","[1920,947]","1","[0,1]","1","1","250.60000002384186","1","1","[""#48a782"",""#955db9""]","[""#7f5d5d"",""#5f6f81""]","74","false","[0.282,0.491,0.339,0.374]","2","0",""
"","","","","","two-step-trial","122","5096386","0.0-79.0-0.0","","","","","","","","","[2,3]","1","3","596.1000000238419","0","[1920,947]","1","[0,1]","1","1","763.1000000238419","1","1","[""#48a782"",""#955db9""]","[""#7f5d5d"",""#5f6f81""]","75","false","[0.336,0.513,0.333,0.367]","2","0",""
"","","","","","two-step-instructions","123","5100521","0.0-80.0","4134.199999988079","","","[{""page_index"":0,""viewing_time"":3055.699999988079},{""page_index"":1,""viewing_time"":1078.2000000476837}]","","","","","","","","","","","","","","","","","","","","","","","","",""
"","","","","","two-step-trial","124","5104197","0.0-81.0-0.0","","","","","","","","","[2,3]","0","2","714","0","[1920,947]","1","[0,1]","1","1","943.8000000119209","1","1","[""#48a782"",""#955db9""]","[""#7f5d5d"",""#5f6f81""]","76","false","[0.344,0.538,0.274,0.339]","2","0",""
"","","","","","two-step-trial","125","5107635","0.0-82.0-0.0","","","","","","","","","[0,1]","1","1","752.8000000119209","0","[1920,947]","1","[0,1]","1","1","671.7999999523163","0","0","[""#48a782"",""#955db9""]","[""#7f5d5d"",""#5f6f81""]","77","false","[0.322,0.54,0.262,0.343]","2","0",""
"","","","","","two-step-trial","126","5110459","0.0-83.0-0.0","","","","","","","","","[2,3]","1","3","590.4000000357628","0","[1920,947]","1","[0,1]","1","1","225","1","1","[""#48a782"",""#955db9""]","[""#7f5d5d"",""#5f6f81""]","78","false","[0.351,0.561,0.265,0.342]","2","0",""
"","","","","","two-step-trial","127","5113498","0.0-84.0-0.0","","","","","","","","","[0,1]","0","0","672.2999999523163","0","[1920,947]","1","[0,1]","1","1","339.60000002384186","0","0","[""#48a782"",""#955db9""]","[""#7f5d5d"",""#5f6f81""]","79","false","[0.335,0.543,0.286,0.35]","2","0",""
"","","","","","two-step-trial","128","5116663","0.0-85.0-0.0","","","","","","","","","[0,1]","1","1","911.3000000119209","1","[1920,947]","1","[0,1]","1","1","243.80000001192093","0","0","[""#48a782"",""#955db9""]","[""#7f5d5d"",""#5f6f81""]","80","false","[0.328,0.536,0.289,0.405]","2","0",""
"","","","","","two-step-trial","129","5119522","0.0-86.0-0.0","","","","","","","","","[0,1]","1","1","505.10000002384186","0","[1920,947]","1","[0,1]","0","0","332.60000002384186","1","0","[""#48a782"",""#955db9""]","[""#7f5d5d"",""#5f6f81""]","81","false","[0.286,0.534,0.265,0.391]","2","0",""
"","","","","","two-step-trial","130","5122824","0.0-87.0-0.0","","","","","","","","","[0,1]","0","0","1006.3999999761581","0","[1920,947]","1","[0,1]","1","1","278.0999999642372","0","0","[""#48a782"",""#955db9""]","[""#7f5d5d"",""#5f6f81""]","82","false","[0.307,0.553,0.256,0.373]","2","0",""
"","","","","","two-step-trial","131","5125882","0.0-88.0-0.0","","","","","","","","","[2,3]","0","2","472.69999998807907","0","[1920,947]","1","[0,1]","1","1","557.8999999761581","1","1","[""#48a782"",""#955db9""]","[""#7f5d5d"",""#5f6f81""]","83","false","[0.306,0.564,0.273,0.38]","2","0",""
"","","","","","two-step-trial","132","5128909","0.0-89.0-0.0","","","","","","","","","[0,1]","1","1","527.8999999761581","1","[1920,947]","1","[0,1]","0","0","485.60000002384186","1","0","[""#48a782"",""#955db9""]","[""#7f5d5d"",""#5f6f81""]","84","false","[0.263,0.564,0.275,0.397]","2","0",""
"","","","","","two-step-trial","133","5131528","0.0-90.0-0.0","","","","","","","","","[2,3]","1","3","338.89999997615814","1","[1920,947]","1","[0,1]","1","1","261.0999999642372","1","1","[""#48a782"",""#955db9""]","[""#7f5d5d"",""#5f6f81""]","85","false","[0.295,0.592,0.3,0.406]","2","0",""
"","","","","","two-step-trial","134","5134786","0.0-91.0-0.0","","","","","","","","","[0,1]","1","1","700.1999999880791","0","[1920,947]","1","[0,1]","0","0","533.1000000238419","1","0","[""#48a782"",""#955db9""]","[""#7f5d5d"",""#5f6f81""]","86","false","[0.266,0.571,0.324,0.417]","2","0",""
"","","","","","two-step-trial","135","5137874","0.0-92.0-0.0","","","","","","","","","[0,1]","0","0","551.1999999880791","0","[1920,947]","1","[0,1]","1","1","511.2000000476837","0","0","[""#48a782"",""#955db9""]","[""#7f5d5d"",""#5f6f81""]","87","false","[0.25,0.532,0.345,0.39]","2","0",""
"","","","","","two-step-trial","136","5140774","0.0-93.0-0.0","","","","","","","","","[2,3]","1","3","629.4000000357628","0","[1920,947]","1","[0,1]","1","1","250.19999998807907","1","1","[""#48a782"",""#955db9""]","[""#7f5d5d"",""#5f6f81""]","88","false","[0.258,0.529,0.341,0.378]","2","0",""
"","","","","","two-step-trial","137","5143644","0.0-94.0-0.0","","","","","","","","","[0,1]","1","1","578.6000000238419","1","[1920,947]","1","[0,1]","1","1","267.30000001192093","0","0","[""#48a782"",""#955db9""]","[""#7f5d5d"",""#5f6f81""]","89","false","[0.266,0.533,0.306,0.41]","2","0",""
"","","","","","two-step-trial","138","5146532","0.0-95.0-0.0","","","","","","","","","[0,1]","1","1","532","0","[1920,947]","1","[0,1]","0","0","333.19999998807907","1","0","[""#48a782"",""#955db9""]","[""#7f5d5d"",""#5f6f81""]","90","false","[0.254,0.554,0.297,0.382]","2","0",""
"","","","","","two-step-trial","139","5150111","0.0-96.0-0.0","","","","","","","","","[0,1]","0","0","1101.199999988079","0","[1920,947]","1","[0,1]","1","1","461.89999997615814","0","0","[""#48a782"",""#955db9""]","[""#7f5d5d"",""#5f6f81""]","91","false","[0.265,0.543,0.313,0.38]","2","0",""
"","","","","","two-step-trial","140","5154045","0.0-97.0-0.0","","","","","","","","","[0,1]","1","1","1438.8999999761581","1","[1920,947]","1","[0,1]","0","0","474.60000002384186","1","0","[""#48a782"",""#955db9""]","[""#7f5d5d"",""#5f6f81""]","92","false","[0.259,0.54,0.279,0.363]","2","0",""
"","","","","","two-step-trial","141","5157212","0.0-98.0-0.0","","","","","","","","","[2,3]","0","2","879.8000000119209","0","[1920,947]","1","[0,1]","1","1","275.5999999642372","1","1","[""#48a782"",""#955db9""]","[""#7f5d5d"",""#5f6f81""]","93","false","[0.251,0.565,0.296,0.35]","2","0",""
"","","","","","two-step-trial","142","5160563","0.0-99.0-0.0","","","","","","","","","[2,3]","1","3","772.1999999880791","1","[1920,947]","1","[0,1]","0","0","554.5","0","1","[""#48a782"",""#955db9""]","[""#7f5d5d"",""#5f6f81""]","94","false","[0.276,0.543,0.275,0.322]","2","0",""
"","","","","","two-step-trial","143","5163386","0.0-100.0-0.0","","","","","","","","","[0,1]","1","1","509.9000000357628","0","[1920,947]","1","[0,1]","1","1","299.69999998807907","0","0","[""#48a782"",""#955db9""]","[""#7f5d5d"",""#5f6f81""]","95","false","[0.317,0.539,0.285,0.291]","2","0",""
"","","","","","two-step-trial","144","5166597","0.0-101.0-0.0","","","","","","","","","[2,3]","1","3","791.6999999880791","1","[1920,947]","1","[0,1]","1","1","404.0999999642372","1","1","[""#48a782"",""#955db9""]","[""#7f5d5d"",""#5f6f81""]","96","false","[0.325,0.583,0.251,0.276]","2","0",""
"","","","","","two-step-trial","145","5169301","0.0-102.0-0.0","","","","","","","","","[2,3]","1","3","408.9000000357628","0","[1920,947]","1","[0,1]","1","1","273.9000000357628","1","1","[""#48a782"",""#955db9""]","[""#7f5d5d"",""#5f6f81""]","97","false","[0.352,0.597,0.278,0.336]","2","0",""
"","","","","","two-step-trial","146","5172809","0.0-103.0-0.0","","","","","","","","","[0,1]","1","1","1467.3999999761581","1","[1920,947]","1","[0,1]","1","1","28.100000023841858","0","0","[""#48a782"",""#955db9""]","[""#7f5d5d"",""#5f6f81""]","98","false","[0.369,0.601,0.316,0.324]","2","0",""
"","","","","","two-step-trial","147","5175404","0.0-104.0-0.0","","","","","","","","","[2,3]","0","2","391.19999998807907","0","[1920,947]","1","[0,1]","1","1","184.5","1","1","[""#48a782"",""#955db9""]","[""#7f5d5d"",""#5f6f81""]","99","false","[0.338,0.574,0.29,0.307]","2","0",""
"","","","","","two-step-trial","148","5178800","0.0-105.0-0.0","","","","","","","","","[0,1]","1","1","1021.5","1","[1920,947]","1","[0,1]","1","1","356.4000000357628","0","0","[""#48a782"",""#955db9""]","[""#7f5d5d"",""#5f6f81""]","100","false","[0.348,0.567,0.294,0.264]","2","0",""
"","","","","","two-step-trial","149","5181436","0.0-106.0-0.0","","","","","","","","","[0,1]","1","1","379.80000001192093","0","[1920,947]","1","[0,1]","1","1","234.69999998807907","0","0","[""#48a782"",""#955db9""]","[""#7f5d5d"",""#5f6f81""]","101","false","[0.332,0.536,0.335,0.261]","2","0",""
"","","","","","two-step-trial","150","5184599","0.0-107.0-0.0","","","","","","","","","[2,3]","1","3","896.5","0","[1920,947]","1","[0,1]","1","1","248.5","1","1","[""#48a782"",""#955db9""]","[""#7f5d5d"",""#5f6f81""]","102","false","[0.331,0.521,0.359,0.268]","2","0",""
"","","","","","two-step-trial","151","5187314","0.0-108.0-0.0","","","","","","","","","[0,1]","0","0","498.30000001192093","1","[1920,947]","1","[0,1]","1","1","203.5","0","0","[""#48a782"",""#955db9""]","[""#7f5d5d"",""#5f6f81""]","103","false","[0.317,0.518,0.371,0.309]","2","0",""
"","","","","","two-step-trial","152","5189972","0.0-109.0-0.0","","","","","","","","","[2,3]","0","2","433.80000001192093","0","[1920,947]","1","[0,1]","1","1","208.69999998807907","1","1","[""#48a782"",""#955db9""]","[""#7f5d5d"",""#5f6f81""]","104","false","[0.334,0.493,0.341,0.296]","2","0",""
"","","","","","two-step-trial","153","5193061","0.0-110.0-0.0","","","","","","","","","[2,3]","1","3","890.6999999880791","0","[1920,947]","1","[0,1]","0","0","185.29999995231628","0","1","[""#48a782"",""#955db9""]","[""#7f5d5d"",""#5f6f81""]","105","false","[0.349,0.494,0.34,0.27]","2","0",""
"","","","","","two-step-trial","154","5198418","0.0-111.0-0.0","","","","","","","","","[2,3]","0","2","2995","1","[1920,947]","1","[0,1]","1","1","348.19999998807907","1","1","[""#48a782"",""#955db9""]","[""#7f5d5d"",""#5f6f81""]","106","false","[0.302,0.497,0.307,0.282]","2","0",""
"","","","","","two-step-trial","155","5201321","0.0-112.0-0.0","","","","","","","","","[2,3]","0","2","545.5","0","[1920,947]","1","[0,1]","0","0","348.60000002384186","0","1","[""#48a782"",""#955db9""]","[""#7f5d5d"",""#5f6f81""]","107","false","[0.336,0.523,0.294,0.315]","2","0",""
"","","","","","two-step-trial","156","5204626","0.0-113.0-0.0","","","","","","","","","[2,3]","1","3","535.5","0","[1920,947]","1","[0,1]","1","1","749.8999999761581","1","1","[""#48a782"",""#955db9""]","[""#7f5d5d"",""#5f6f81""]","108","false","[0.381,0.482,0.317,0.324]","2","0",""
"","","","","","two-step-trial","157","5207531","0.0-114.0-0.0","","","","","","","","","[2,3]","1","3","652.4000000357628","0","[1920,947]","1","[0,1]","1","1","240.5999999642372","1","1","[""#48a782"",""#955db9""]","[""#7f5d5d"",""#5f6f81""]","109","false","[0.342,0.505,0.32,0.33]","2","0",""
"","","","","","two-step-trial","158","5210049","0.0-115.0-0.0","","","","","","","","","[2,3]","0","2","456.60000002384186","0","[1920,947]","1","[0,1]","1","1","42.30000001192093","1","1","[""#48a782"",""#955db9""]","[""#7f5d5d"",""#5f6f81""]","110","false","[0.337,0.526,0.318,0.349]","2","0",""
"","","","","","two-step-trial","159","5213447","0.0-116.0-0.0","","","","","","","","","[2,3]","0","2","1269.800000011921","1","[1920,947]","1","[0,1]","1","1","114.89999997615814","1","1","[""#48a782"",""#955db9""]","[""#7f5d5d"",""#5f6f81""]","111","false","[0.374,0.551,0.269,0.35]","2","0",""
"","","","","","two-step-trial","160","5216261","0.0-117.0-0.0","","","","","","","","","[0,1]","0","0","746.5","0","[1920,947]","1","[0,1]","1","1","64.90000003576279","0","0","[""#48a782"",""#955db9""]","[""#7f5d5d"",""#5f6f81""]","112","false","[0.355,0.517,0.255,0.331]","2","0",""
"","","","","","two-step-trial","161","5219481","0.0-118.0-0.0","","","","","","","","","[2,3]","1","3","1062.199999988079","0","[1920,947]","1","[0,1]","1","1","141.30000001192093","1","1","[""#48a782"",""#955db9""]","[""#7f5d5d"",""#5f6f81""]","113","false","[0.331,0.507,0.283,0.271]","2","0",""
"","","","","","two-step-trial","162","5222049","0.0-119.0-0.0","","","","","","","","","[0,1]","1","1","414.5","0","[1920,947]","1","[0,1]","1","1","144.80000001192093","0","0","[""#48a782"",""#955db9""]","[""#7f5d5d"",""#5f6f81""]","114","false","[0.326,0.467,0.284,0.267]","2","0",""
"","","","","","two-step-trial","163","5224919","0.0-120.0-0.0","","","","","","","","","[2,3]","0","2","780.5","1","[1920,947]","1","[0,1]","1","1","73.90000003576279","1","1","[""#48a782"",""#955db9""]","[""#7f5d5d"",""#5f6f81""]","115","false","[0.313,0.494,0.291,0.251]","2","0",""
"","","","","","two-step-trial","164","5227884","0.0-121.0-0.0","","","","","","","","","[0,1]","0","0","807.3999999761581","1","[1920,947]","1","[0,1]","1","1","130","0","0","[""#48a782"",""#955db9""]","[""#7f5d5d"",""#5f6f81""]","116","false","[0.319,0.494,0.296,0.273]","2","0",""
"","","","","","two-step-trial","165","5230527","0.0-122.0-0.0","","","","","","","","","[2,3]","0","2","560","1","[1920,947]","1","[0,1]","1","1","62.69999998807907","1","1","[""#48a782"",""#955db9""]","[""#7f5d5d"",""#5f6f81""]","117","false","[0.297,0.492,0.312,0.277]","2","0",""
"","","","","","two-step-trial","166","5233277","0.0-123.0-0.0","","","","","","","","","[2,3]","0","2","488.5","0","[1920,947]","1","[0,1]","1","1","235.5","1","1","[""#48a782"",""#955db9""]","[""#7f5d5d"",""#5f6f81""]","118","false","[0.288,0.513,0.36,0.275]","2","0",""
"","","","","","two-step-trial","167","5236369","0.0-124.0-0.0","","","","","","","","","[0,1]","0","0","695.0999999642372","0","[1920,947]","1","[0,1]","1","1","380.80000001192093","0","0","[""#48a782"",""#955db9""]","[""#7f5d5d"",""#5f6f81""]","119","false","[0.304,0.552,0.392,0.266]","2","0",""
"","","","","","two-step-trial","168","5239197","0.0-125.0-0.0","","","","","","","","","[2,3]","1","3","728.0999999642372","0","[1920,947]","1","[0,1]","1","1","75","1","1","[""#48a782"",""#955db9""]","[""#7f5d5d"",""#5f6f81""]","120","false","[0.295,0.538,0.367,0.253]","2","0",""
"","","","","","two-step-trial","169","5241763","0.0-126.0-0.0","","","","","","","","","[0,1]","1","1","515.1000000238419","0","[1920,947]","1","[0,1]","1","1","36.89999997615814","0","0","[""#48a782"",""#955db9""]","[""#7f5d5d"",""#5f6f81""]","121","false","[0.268,0.49,0.389,0.267]","2","0",""
"","","","","","two-step-trial","170","5244113","0.0-127.0-0.0","","","","","","","","","[0,1]","0","0","280.30000001192093","1","[1920,947]","1","[0,1]","1","1","58.299999952316284","0","0","[""#48a782"",""#955db9""]","[""#7f5d5d"",""#5f6f81""]","122","false","[0.292,0.548,0.366,0.262]","2","0",""
"","","","","","two-step-trial","171","5246942","0.0-128.0-0.0","","","","","","","","","[2,3]","0","2","797.6000000238419","0","[1920,947]","1","[0,1]","1","1","21.599999964237213","1","1","[""#48a782"",""#955db9""]","[""#7f5d5d"",""#5f6f81""]","123","false","[0.287,0.579,0.38,0.276]","2","0",""
"","","","","","two-step-trial","172","5249645","0.0-129.0-0.0","","","","","","","","","[2,3]","0","2","560.3999999761581","1","[1920,947]","1","[0,1]","1","1","120.69999998807907","1","1","[""#48a782"",""#955db9""]","[""#7f5d5d"",""#5f6f81""]","124","false","[0.296,0.64,0.405,0.262]","2","0",""
"","","","","","two-step-trial","173","5252348","0.0-130.0-0.0","","","","","","","","","[0,1]","0","0","677.3999999761581","1","[1920,947]","1","[0,1]","1","1","5.900000035762787","0","0","[""#48a782"",""#955db9""]","[""#7f5d5d"",""#5f6f81""]","125","false","[0.25,0.637,0.448,0.25]","2","0",""
"","","","","","two-step-trial","174","5255050","0.0-131.0-0.0","","","","","","","","","[2,3]","0","2","608","1","[1920,947]","1","[0,1]","1","1","74.09999996423721","1","1","[""#48a782"",""#955db9""]","[""#7f5d5d"",""#5f6f81""]","126","false","[0.255,0.666,0.447,0.257]","2","0",""
"","","","","","two-step-trial","175","5257567","0.0-132.0-0.0","","","","","","","","","[0,1]","0","0","379.69999998807907","0","[1920,947]","1","[0,1]","1","1","123.60000002384186","0","0","[""#48a782"",""#955db9""]","[""#7f5d5d"",""#5f6f81""]","127","false","[0.281,0.695,0.433,0.272]","2","0",""
"","","","","","two-step-trial","176","5259825","0.0-133.0-0.0","","","","","","","","","[0,1]","1","1","144","1","[1920,947]","1","[0,1]","1","1","94.40000003576279","0","0","[""#48a782"",""#955db9""]","[""#7f5d5d"",""#5f6f81""]","128","false","[0.277,0.667,0.42,0.278]","2","0",""
"","","","","","two-step-trial","177","5262482","0.0-134.0-0.0","","","","","","","","","[2,3]","0","2","491.9000000357628","1","[1920,947]","1","[0,1]","1","1","151.0999999642372","1","1","[""#48a782"",""#955db9""]","[""#7f5d5d"",""#5f6f81""]","129","false","[0.318,0.661,0.46,0.294]","2","0",""
"","","","","","two-step-trial","178","5264969","0.0-135.0-0.0","","","","","","","","","[2,3]","0","2","465.10000002384186","1","[1920,947]","1","[0,1]","1","1","1.600000023841858","1","1","[""#48a782"",""#955db9""]","[""#7f5d5d"",""#5f6f81""]","130","false","[0.306,0.677,0.461,0.259]","2","0",""
"","","","","","two-step-trial","179","5267163","0.0-136.0-0.0","","","","","","","","","[2,3]","1","3","37.700000047683716","0","[1920,947]","1","[0,1]","1","1","134.5","1","1","[""#48a782"",""#955db9""]","[""#7f5d5d"",""#5f6f81""]","131","false","[0.35,0.655,0.474,0.278]","2","0",""
"","","","","","two-step-trial","180","5269976","0.0-137.0-0.0","","","","","","","","","[2,3]","0","2","560.8000000119209","1","[1920,947]","1","[0,1]","1","1","243.9000000357628","1","1","[""#48a782"",""#955db9""]","[""#7f5d5d"",""#5f6f81""]","132","false","[0.352,0.663,0.445,0.297]","2","0",""
"","","","","","two-step-trial","181","5272633","0.0-138.0-0.0","","","","","","","","","[2,3]","0","2","522.0999999642372","0","[1920,947]","1","[0,1]","1","1","114.5","1","1","[""#48a782"",""#955db9""]","[""#7f5d5d"",""#5f6f81""]","133","false","[0.374,0.662,0.412,0.314]","2","0",""
"","","","","","two-step-trial","182","5275402","0.0-139.0-0.0","","","","","","","","","[2,3]","1","3","589.3000000119209","0","[1920,947]","1","[0,1]","1","1","162.4000000357628","1","1","[""#48a782"",""#955db9""]","[""#7f5d5d"",""#5f6f81""]","134","false","[0.405,0.666,0.424,0.315]","2","0",""
"","","","","","two-step-trial","183","5278260","0.0-140.0-0.0","","","","","","","","","[2,3]","0","2","641.6000000238419","1","[1920,947]","1","[0,1]","1","1","202.5999999642372","1","1","[""#48a782"",""#955db9""]","[""#7f5d5d"",""#5f6f81""]","135","false","[0.43,0.696,0.452,0.345]","2","0",""
"","","","","","two-step-trial","184","5281010","0.0-141.0-0.0","","","","","","","","","[2,3]","0","2","684.9000000357628","1","[1920,947]","1","[0,1]","1","1","51.19999998807907","1","1","[""#48a782"",""#955db9""]","[""#7f5d5d"",""#5f6f81""]","136","false","[0.426,0.681,0.444,0.337]","2","0",""
"","","","","","two-step-trial","185","5283714","0.0-142.0-0.0","","","","","","","","","[2,3]","0","2","522.3000000119209","0","[1920,947]","1","[0,1]","1","1","156.19999998807907","1","1","[""#48a782"",""#955db9""]","[""#7f5d5d"",""#5f6f81""]","137","false","[0.411,0.674,0.45,0.299]","2","0",""
"","","","","","two-step-trial","186","5285922","0.0-143.0-0.0","","","","","","","","","[2,3]","1","3","47.200000047683716","1","[1920,947]","1","[0,1]","1","1","143.30000001192093","1","1","[""#48a782"",""#955db9""]","[""#7f5d5d"",""#5f6f81""]","138","false","[0.414,0.699,0.459,0.339]","2","0",""
"","","","","","two-step-trial","187","5288473","0.0-144.0-0.0","","","","","","","","","[2,3]","0","2","485.4000000357628","1","[1920,947]","1","[0,1]","1","1","54.69999998807907","1","1","[""#48a782"",""#955db9""]","[""#7f5d5d"",""#5f6f81""]","139","false","[0.394,0.734,0.462,0.307]","2","0",""
"","","","","","two-step-trial","188","5290558","0.0-145.0-0.0","","","","","","","","","[0,1]","1","1","12.199999988079071","1","[1920,947]","1","[0,1]","1","1","65.69999998807907","0","0","[""#48a782"",""#955db9""]","[""#7f5d5d"",""#5f6f81""]","140","false","[0.361,0.693,0.467,0.292]","2","0",""
"","","","","","two-step-trial","189","5293043","0.0-146.0-0.0","","","","","","","","","[0,1]","1","1","362.39999997615814","1","[1920,947]","1","[0,1]","0","0","99.40000003576279","1","0","[""#48a782"",""#955db9""]","[""#7f5d5d"",""#5f6f81""]","141","false","[0.354,0.722,0.46,0.26]","2","0",""
"","","","","","two-step-trial","190","5296116","0.0-147.0-0.0","","","","","","","","","[0,1]","1","1","999.3000000119209","0","[1920,947]","1","[0,1]","0","0","60.39999997615814","1","0","[""#48a782"",""#955db9""]","[""#7f5d5d"",""#5f6f81""]","142","false","[0.353,0.749,0.428,0.301]","2","0",""
"","","","","","two-step-trial","191","5300039","0.0-148.0-0.0","","","","","","","","","[2,3]","1","3","969.8000000119209","0","[1920,947]","1","[0,1]","1","1","936.7999999523163","1","1","[""#48a782"",""#955db9""]","[""#7f5d5d"",""#5f6f81""]","143","false","[0.361,0.73,0.409,0.316]","2","0",""
"","","","","","two-step-trial","192","5303084","0.0-149.0-0.0","","","","","","","","","[0,1]","1","1","555.1000000238419","0","[1920,947]","1","[0,1]","0","0","465.19999998807907","1","0","[""#48a782"",""#955db9""]","[""#7f5d5d"",""#5f6f81""]","144","false","[0.295,0.721,0.424,0.316]","2","0",""
"","","","","","two-step-trial","193","5305599","0.0-150.0-0.0","","","","","","","","","[2,3]","1","3","355.30000001192093","1","[1920,947]","1","[0,1]","1","1","150.60000002384186","1","1","[""#48a782"",""#955db9""]","[""#7f5d5d"",""#5f6f81""]","145","false","[0.287,0.742,0.437,0.287]","2","0",""
"","","","","","two-step-trial","194","5308164","0.0-151.0-0.0","","","","","","","","","[0,1]","1","1","428.7000000476837","0","[1920,947]","1","[0,1]","0","0","110.80000001192093","1","0","[""#48a782"",""#955db9""]","[""#7f5d5d"",""#5f6f81""]","146","false","[0.278,0.742,0.427,0.31]","2","0",""
"","","","","","two-step-trial","195","5311130","0.0-152.0-0.0","","","","","","","","","[0,1]","1","1","843.7000000476837","0","[1920,947]","1","[0,1]","0","0","107.20000004768372","1","0","[""#48a782"",""#955db9""]","[""#7f5d5d"",""#5f6f81""]","147","false","[0.277,0.741,0.475,0.282]","2","0",""
"","","","","","two-step-trial","196","5313833","0.0-153.0-0.0","","","","","","","","","[2,3]","1","3","628.6999999880791","0","[1920,947]","1","[0,1]","0","0","58.30000001192093","0","1","[""#48a782"",""#955db9""]","[""#7f5d5d"",""#5f6f81""]","148","false","[0.264,0.733,0.497,0.268]","2","0",""
"","","","","","two-step-trial","197","5316259","0.0-154.0-0.0","","","","","","","","","[0,1]","0","0","405","0","[1920,947]","1","[0,1]","0","0","0.10000002384185791","1","0","[""#48a782"",""#955db9""]","[""#7f5d5d"",""#5f6f81""]","149","false","[0.258,0.74,0.534,0.264]","2","0",""
"","","","","","two-step-trial","198","5318437","0.0-155.0-0.0","","","","","","","","","[0,1]","1","1","160","1","[1920,947]","1","[0,1]","0","0","2.400000035762787","1","0","[""#48a782"",""#955db9""]","[""#7f5d5d"",""#5f6f81""]","150","false","[0.326,0.735,0.576,0.271]","2","0",""
"","","","","","two-step-instructions","199","5324020","0.0-156.0","5581.399999976158","","","[{""page_index"":0,""viewing_time"":5581.199999988079}]","","","","","","","","","","","","","","","","","","","","","","","","",""
"","","","","","two-step-comprehension","200","5331522","0.0-157.0","7501.200000047684","","","","[""green"",""purple""]","0","","","","","","","","","","","","","","","","","","","","","","","[{""event"":""fullscreenenter"",""trial"":1,""time"":1914},{""event"":""fullscreenexit"",""trial"":2,""time"":5059},{""event"":""blur"",""trial"":3,""time"":20914},{""event"":""focus"",""trial"":3,""time"":22159},{""event"":""blur"",""trial"":3,""time"":43946},{""event"":""focus"",""trial"":3,""time"":80596},{""event"":""blur"",""trial"":3,""time"":81840},{""event"":""focus"",""trial"":3,""time"":111244},{""event"":""blur"",""trial"":8,""time"":149068},{""event"":""focus"",""trial"":8,""time"":364244},{""event"":""blur"",""trial"":17,""time"":405213},{""event"":""focus"",""trial"":17,""time"":787717},{""event"":""blur"",""trial"":17,""time"":788105},{""event"":""focus"",""trial"":17,""time"":797830},{""event"":""blur"",""trial"":17,""time"":797970},{""event"":""focus"",""trial"":17,""time"":799998},{""event"":""blur"",""trial"":23,""time"":823081},{""event"":""focus"",""trial"":23,""time"":921480},{""event"":""blur"",""trial"":23,""time"":921888},{""event"":""focus"",""trial"":23,""time"":933318},{""event"":""blur"",""trial"":23,""time"":933579},{""event"":""focus"",""trial"":23,""time"":1076132},{""event"":""blur"",""trial"":25,""time"":1606650},{""event"":""focus"",""trial"":25,""time"":1622635},{""event"":""blur"",""trial"":25,""time"":2473453},{""event"":""focus"",""trial"":25,""time"":2474633},{""event"":""blur"",""trial"":45,""time"":2558996},{""event"":""focus"",""trial"":45,""time"":4823994},{""event"":""blur"",""trial"":45,""time"":4823996},{""event"":""focus"",""trial"":45,""time"":4825711}]"
