"success","timeout","failed_images","failed_audio","failed_video","trial_type","trial_index","time_elapsed","internal_node_id","rt","stimulus","response","view_history","responses","num_errors","quiz","phase","state_2_ids","state_2_key","state_2_choice","state_2_rt","outcome","screen_resolution","minimum_resolution","state_1_ids","state_1_key","state_1_choice","state_1_rt","transition","state","rocket_colors","planet_colors","trial","missing","drifts","drift_ix","browser_interactions","interactions"
"true","false","[]","[]","[]","preload","0","3834","0.0-0.0","","","","","","","","","","","","","","","","","","","","","","","","","","","","",""
"true","","","","","fullscreen","1","11492","0.0-1.0","","","","","","","","","","","","","","","","","","","","","","","","","","","","",""
"","","","","","html-keyboard-response","2","23640","0.0-2.0","12146","<p>You are starting a demo of the <b>two-step task.</b></p><p>To see the instructions, press the ""1"" key. To skip them, press the ""2"" key.</p>","1","","","","","","","","","","","","","","","","","","","","","","","","","",""
"","","","","","two-step-instructions","3","119376","0.0-3.0-0.0-1.0","95733","","","[{""page_index"":0,""viewing_time"":18096},{""page_index"":1,""viewing_time"":5909},{""page_index"":2,""viewing_time"":3775},{""page_index"":3,""viewing_time"":5949},{""page_index"":4,""viewing_time"":7523},{""page_index"":5,""viewing_time"":6593},{""page_index"":6,""viewing_time"":15939},{""page_index"":7,""viewing_time"":7217},{""page_index"":8,""viewing_time"":11203},{""page_index"":9,""viewing_time"":9337},{""page_index"":10,""viewing_time"":4191}]","","","","","","","","","","","","","","","","","","","","","","","","",""
"","","","","","two-step-comprehension","4","141548","0.0-3.0-0.0-2.0","22170","","","","[""left/right arrow keys"",""True"",""True""]","0","1","","","","","","","","","","","","","","","","","","","","","",""
"","","","","","two-step-instructions","5","156235","0.0-3.0-1.0-0.0-0.0","14684","","","[{""page_index"":0,""viewing_time"":14684}]","","","","instructions_1b","","","","","","","","","","","","","","","","","","","","",""
"","","","","","alien-practice","6","162878","0.0-3.0-1.0-1.0-0.0","","","","","","","","","[0,1]","0","0","4428","0","[1920,1080]","1","","","","","","","","","","","","","",""
"","","","","","alien-practice","7","166857","0.0-3.0-1.0-2.0-0.0","","","","","","","","","[0,1]","1","1","1766","0","[1920,1080]","1","","","","","","","","","","","","","",""
"","","","","","alien-practice","8","170505","0.0-3.0-1.0-3.0-0.0","","","","","","","","","[0,1]","1","1","1430","1","[1920,1080]","1","","","","","","","","","","","","","",""
"","","","","","alien-practice","9","173595","0.0-3.0-1.0-4.0-0.0","","","","","","","","","[0,1]","0","0","875","0","[1920,1080]","1","","","","","","","","","","","","","",""
"","","","","","alien-practice","10","177927","0.0-3.0-1.0-5.0-0.0","","","","","","","","","[0,1]","1","1","2101","1","[1920,1080]","1","","","","","","","","","","","","","",""
"","","","","","alien-practice","11","181691","0.0-3.0-1.0-6.0-0.0","","","","","","","","","[0,1]","0","0","1536","0","[1920,1080]","1","","","","","","","","","","","","","",""
"","","","","","alien-practice","12","184609","0.0-3.0-1.0-7.0-0.0","","","","","","","","","[0,1]","0","0","712","1","[1920,1080]","1","","","","","","","","","","","","","",""
"","","","","","alien-practice","13","187851","0.0-3.0-1.0-8.0-0.0","","","","","","","","","[0,1]","0","0","1024","0","[1920,1080]","1","","","","","","","","","","","","","",""
"","","","","","alien-practice","14","190985","0.0-3.0-1.0-9.0-0.0","","","","","","","","","[0,1]","1","1","920","1","[1920,1080]","1","","","","","","","","","","","","","",""
"","","","","","alien-practice","15","194514","0.0-3.0-1.0-10.0-0.0","","","","","","","","","[0,1]","0","0","1313","0","[1920,1080]","1","","","","","","","","","","","","","",""
"","","","","","two-step-instructions","16","223619","0.0-3.0-1.0-11.0-0.0","29103","","","[{""page_index"":0,""viewing_time"":9083},{""page_index"":1,""viewing_time"":20020}]","","","","","","","","","","","","","","","","","","","","","","","","",""
"","","","","","alien-practice","17","228726","0.0-3.0-1.1-1.1-0.1","","","","","","","","","[0,1]","0","0","2890","0","[1920,1080]","1","","","","","","","","","","","","","",""
"","","","","","alien-practice","18","233066","0.0-3.0-1.1-2.1-0.1","","","","","","","","","[0,1]","1","1","2120","0","[1920,1080]","1","","","","","","","","","","","","","",""
"","","","","","alien-practice","19","236098","0.0-3.0-1.1-3.1-0.1","","","","","","","","","[0,1]","0","0","816","0","[1920,1080]","1","","","","","","","","","","","","","",""
"","","","","","alien-practice","20","239811","0.0-3.0-1.1-4.1-0.1","","","","","","","","","[0,1]","1","1","1495","1","[1920,1080]","1","","","","","","","","","","","","","",""
"","","","","","alien-practice","21","242873","0.0-3.0-1.1-5.1-0.1","","","","","","","","","[0,1]","1","1","844","1","[1920,1080]","1","","","","","","","","","","","","","",""
"","","","","","alien-practice","22","246290","0.0-3.0-1.1-6.1-0.1","","","","","","","","","[0,1]","1","1","1201","1","[1920,1080]","1","","","","","","","","","","","","","",""
"","","","","","two-step-instructions","23","282891","0.0-3.0-2.0-1.0","36599","","","[{""page_index"":0,""viewing_time"":5643},{""page_index"":1,""viewing_time"":2991},{""page_index"":2,""viewing_time"":7473},{""page_index"":3,""viewing_time"":11492},{""page_index"":4,""viewing_time"":4463},{""page_index"":5,""viewing_time"":4537}]","","","","","","","","","","","","","","","","","","","","","","","","",""
"","","","","","two-step-comprehension","24","317116","0.0-3.0-2.0-2.0","34223","","","","[""left/right arrow keys"",""False"",""True""]","0","2","","","","","","","","","","","","","","","","","","","","","",""
"","","","","","two-step-instructions","25","338106","0.0-3.0-3.0-0.0","20988","","","[{""page_index"":0,""viewing_time"":12260},{""page_index"":1,""viewing_time"":4928},{""page_index"":2,""viewing_time"":3800}]","","","","","","","","","","","","","","","","","","","","","","","","",""
"","","","","","two-step-trial","26","349989","0.0-3.0-3.0-1.0-0.0","","","","","","","","","[0,1]","1","1","7309","0","[1920,1080]","1","[0,1]","0","0","2564","1","0","[""#a75248"",""#486ea7""]","[""#706081"",""#5b7c65""]","0","false","","","",""
"","","","","","two-step-trial","27","358819","0.0-3.0-3.0-1.0-0.1","","","","","","","","","[2,3]","0","2","2158","0","[1920,1080]","1","[0,1]","1","1","4648","1","1","[""#a75248"",""#486ea7""]","[""#706081"",""#5b7c65""]","0","false","","","",""
"","","","","","two-step-trial","28","367486","0.0-3.0-3.0-1.0-0.2","","","","","","","","","[0,1]","0","0","1114","1","[1920,1080]","1","[0,1]","0","0","5531","1","0","[""#a75248"",""#486ea7""]","[""#706081"",""#5b7c65""]","0","false","","","",""
"","","","","","two-step-trial","29","372588","0.0-3.0-3.0-1.0-0.3","","","","","","","","","[0,1]","0","0","1149","1","[1920,1080]","1","[0,1]","0","0","1935","1","0","[""#a75248"",""#486ea7""]","[""#706081"",""#5b7c65""]","0","false","","","",""
"","","","","","two-step-trial","30","376898","0.0-3.0-3.0-1.0-0.4","","","","","","","","","[0,1]","0","0","1020","1","[1920,1080]","1","[0,1]","0","0","1274","1","0","[""#a75248"",""#486ea7""]","[""#706081"",""#5b7c65""]","0","false","","","",""
"","","","","","two-step-trial","31","381401","0.0-3.0-3.0-1.0-0.5","","","","","","","","","[0,1]","0","0","1229","1","[1920,1080]","1","[0,1]","0","0","1252","1","0","[""#a75248"",""#486ea7""]","[""#706081"",""#5b7c65""]","0","false","","","",""
"","","","","","two-step-trial","32","385645","0.0-3.0-3.0-1.0-0.6","","","","","","","","","[0,1]","0","0","1047","1","[1920,1080]","1","[0,1]","0","0","1189","1","0","[""#a75248"",""#486ea7""]","[""#706081"",""#5b7c65""]","0","false","","","",""
"","","","","","two-step-trial","33","390027","0.0-3.0-3.0-1.0-0.7","","","","","","","","","[0,1]","0","0","1083","1","[1920,1080]","1","[0,1]","0","0","1281","1","0","[""#a75248"",""#486ea7""]","[""#706081"",""#5b7c65""]","0","false","","","",""
"","","","","","two-step-trial","34","394437","0.0-3.0-3.0-1.0-0.8","","","","","","","","","[0,1]","0","0","998","1","[1920,1080]","1","[0,1]","0","0","1386","1","0","[""#a75248"",""#486ea7""]","[""#706081"",""#5b7c65""]","0","false","","","",""
"","","","","","two-step-trial","35","398287","0.0-3.0-3.0-1.0-0.9","","","","","","","","","[0,1]","0","0","875","1","[1920,1080]","1","[0,1]","0","0","945","1","0","[""#a75248"",""#486ea7""]","[""#706081"",""#5b7c65""]","0","false","","","",""
"","","","","","two-step-instructions","36","478684","0.0-3.0-4.0-1.0","80395","","","[{""page_index"":0,""viewing_time"":3871},{""page_index"":1,""viewing_time"":4671},{""page_index"":2,""viewing_time"":4553},{""page_index"":1,""viewing_time"":3016},{""page_index"":2,""viewing_time"":3592},{""page_index"":3,""viewing_time"":3263},{""page_index"":4,""viewing_time"":16293},{""page_index"":5,""viewing_time"":35607},{""page_index"":6,""viewing_time"":5529}]","","","","","","","","","","","","","","","","","","","","","","","","",""
"","","","","","two-step-comprehension","37","501717","0.0-3.0-4.0-2.0","23031","","","","[""True"",""False"",""True""]","0","3","","","","","","","","","","","","","","","","","","","","","",""
"","","","","","two-step-instructions","38","515867","0.0-4.0","14147","","","[{""page_index"":0,""viewing_time"":2156},{""page_index"":1,""viewing_time"":4576},{""page_index"":2,""viewing_time"":7415}]","","","","","","","","","","","","","","","","","","","","","","","","",""
"","","","","","two-step-trial","39","521790","0.0-5.0-0.0","","","","","","","","","[0,1]","0","0","1287","0","[1920,1080]","1","[0,1]","0","0","2620","1","0","[""#955db9"",""#48a782""]","[""#7f5d5d"",""#5f6f81""]","1","false","[0.412,0.317,0.453,0.743]","2","0",""
"","","","","","two-step-trial","40","527537","0.0-6.0-0.0","","","","","","","","","[2,3]","0","2","1764","1","[1920,1080]","1","[0,1]","1","1","1968","1","1","[""#955db9"",""#48a782""]","[""#7f5d5d"",""#5f6f81""]","2","false","[0.402,0.305,0.461,0.702]","2","0",""
"","","","","","two-step-trial","41","531881","0.0-7.0-0.0","","","","","","","","","[0,1]","0","0","1298","0","[1920,1080]","1","[0,1]","1","1","1029","0","0","[""#955db9"",""#48a782""]","[""#7f5d5d"",""#5f6f81""]","3","false","[0.373,0.327,0.445,0.732]","2","0",""
"","","","","","two-step-trial","42","536552","0.0-8.0-0.0","","","","","","","","","[2,3]","0","2","904","1","[1920,1080]","1","[0,1]","1","1","1756","1","1","[""#955db9"",""#48a782""]","[""#7f5d5d"",""#5f6f81""]","4","false","[0.381,0.303,0.418,0.736]","2","0",""
"","","","","","two-step-trial","43","541244","0.0-9.0-0.0","","","","","","","","","[2,3]","0","2","1056","0","[1920,1080]","1","[0,1]","1","1","1621","1","1","[""#955db9"",""#48a782""]","[""#7f5d5d"",""#5f6f81""]","5","false","[0.366,0.363,0.401,0.709]","2","0",""
"","","","","","two-step-trial","44","547370","0.0-10.0-0.0","","","","","","","","","[2,3]","0","2","1467","1","[1920,1080]","1","[0,1]","1","1","2650","1","1","[""#955db9"",""#48a782""]","[""#7f5d5d"",""#5f6f81""]","6","false","[0.393,0.368,0.383,0.711]","2","0",""
"","","","","","two-step-trial","45","551533","0.0-11.0-0.0","","","","","","","","","[2,3]","0","2","1136","0","[1920,1080]","1","[0,1]","1","1","1002","1","1","[""#955db9"",""#48a782""]","[""#7f5d5d"",""#5f6f81""]","7","false","[0.4,0.405,0.425,0.678]","2","0",""
"","","","","","two-step-trial","46","557566","0.0-12.0-0.0","","","","","","","","","[2,3]","0","2","1164","0","[1920,1080]","1","[0,1]","1","1","2841","1","1","[""#955db9"",""#48a782""]","[""#7f5d5d"",""#5f6f81""]","8","false","[0.383,0.388,0.415,0.699]","2","0",""
"","","","","","two-step-trial","47","562387","0.0-13.0-0.0","","","","","","","","","[0,1]","0","0","1912","0","[1920,1080]","1","[0,1]","0","0","889","1","0","[""#955db9"",""#48a782""]","[""#7f5d5d"",""#5f6f81""]","9","false","[0.347,0.439,0.405,0.713]","2","0",""
"","","","","","two-step-trial","48","567365","0.0-14.0-0.0","","","","","","","","","[2,3]","0","2","1897","1","[1920,1080]","1","[0,1]","0","0","1058","0","1","[""#955db9"",""#48a782""]","[""#7f5d5d"",""#5f6f81""]","10","false","[0.367,0.459,0.46,0.731]","2","0",""
"","","","","","two-step-trial","49","571592","0.0-15.0-0.0","","","","","","","","","[0,1]","1","1","1300","1","[1920,1080]","1","[0,1]","0","0","912","1","0","[""#955db9"",""#48a782""]","[""#7f5d5d"",""#5f6f81""]","11","false","[0.397,0.451,0.461,0.701]","2","0",""
"","","","","","two-step-trial","50","577156","0.0-16.0-0.0","","","","","","","","","[0,1]","1","1","2445","1","[1920,1080]","1","[0,1]","0","0","1108","1","0","[""#955db9"",""#48a782""]","[""#7f5d5d"",""#5f6f81""]","12","false","[0.357,0.426,0.459,0.707]","2","0",""
"","","","","","two-step-trial","51","586047","0.0-17.0-0.0","","","","","","","","","[2,3]","1","3","5765","1","[1920,1080]","1","[0,1]","0","0","1106","0","1","[""#955db9"",""#48a782""]","[""#7f5d5d"",""#5f6f81""]","13","false","[0.337,0.398,0.428,0.721]","2","0",""
"","","","","","two-step-trial","52","590348","0.0-18.0-0.0","","","","","","","","","[2,3]","1","3","1098","0","[1920,1080]","1","[0,1]","0","0","1191","0","1","[""#955db9"",""#48a782""]","[""#7f5d5d"",""#5f6f81""]","14","false","[0.283,0.408,0.384,0.719]","2","0",""
"","","","","","two-step-trial","53","596346","0.0-19.0-0.0","","","","","","","","","[2,3]","1","3","1493","1","[1920,1080]","1","[0,1]","1","1","2498","1","1","[""#955db9"",""#48a782""]","[""#7f5d5d"",""#5f6f81""]","15","false","[0.295,0.37,0.375,0.738]","2","0",""
"","","","","","two-step-trial","54","600743","0.0-20.0-0.0","","","","","","","","","[2,3]","1","3","1310","1","[1920,1080]","1","[0,1]","1","1","1076","1","1","[""#955db9"",""#48a782""]","[""#7f5d5d"",""#5f6f81""]","16","false","[0.305,0.343,0.325,0.713]","2","0",""
"","","","","","two-step-trial","55","605244","0.0-21.0-0.0","","","","","","","","","[2,3]","1","3","1060","0","[1920,1080]","1","[0,1]","1","1","1430","1","1","[""#955db9"",""#48a782""]","[""#7f5d5d"",""#5f6f81""]","17","false","[0.305,0.313,0.334,0.705]","2","0",""
"","","","","","two-step-trial","56","611864","0.0-22.0-0.0","","","","","","","","","[0,1]","1","1","1516","0","[1920,1080]","1","[0,1]","0","0","3090","1","0","[""#955db9"",""#48a782""]","[""#7f5d5d"",""#5f6f81""]","18","false","[0.316,0.314,0.353,0.728]","2","0",""
"","","","","","two-step-trial","57","616483","0.0-23.0-0.0","","","","","","","","","[2,3]","1","3","1652","1","[1920,1080]","1","[0,1]","0","0","958","0","1","[""#955db9"",""#48a782""]","[""#7f5d5d"",""#5f6f81""]","19","false","[0.317,0.335,0.368,0.745]","2","0",""
"","","","","","two-step-trial","58","622857","0.0-24.0-0.0","","","","","","","","","[0,1]","1","1","2773","0","[1920,1080]","1","[0,1]","0","0","1594","1","0","[""#955db9"",""#48a782""]","[""#7f5d5d"",""#5f6f81""]","20","false","[0.307,0.313,0.421,0.737]","2","0",""
"","","","","","two-step-trial","59","626470","0.0-25.0-0.0","","","","","","","","","[0,1]","0","0","819","0","[1920,1080]","1","[0,1]","0","0","773","1","0","[""#955db9"",""#48a782""]","[""#7f5d5d"",""#5f6f81""]","21","false","[0.31,0.305,0.401,0.745]","2","0",""
"","","","","","two-step-trial","60","630820","0.0-26.0-0.0","","","","","","","","","[2,3]","1","3","1646","1","[1920,1080]","1","[0,1]","0","0","679","0","1","[""#955db9"",""#48a782""]","[""#7f5d5d"",""#5f6f81""]","22","false","[0.326,0.31,0.391,0.735]","2","0",""
"","","","","","two-step-trial","61","636264","0.0-27.0-0.0","","","","","","","","","[2,3]","1","3","1010","1","[1920,1080]","1","[0,1]","0","0","2411","0","1","[""#955db9"",""#48a782""]","[""#7f5d5d"",""#5f6f81""]","23","false","[0.331,0.302,0.379,0.741]","2","0",""
"","","","","","two-step-trial","62","640984","0.0-28.0-0.0","","","","","","","","","[0,1]","0","0","1677","0","[1920,1080]","1","[0,1]","0","0","1038","1","0","[""#955db9"",""#48a782""]","[""#7f5d5d"",""#5f6f81""]","24","false","[0.358,0.323,0.393,0.738]","2","0",""
"","","","","","two-step-trial","63","644578","0.0-29.0-0.0","","","","","","","","","[0,1]","1","1","905","0","[1920,1080]","1","[0,1]","0","0","661","1","0","[""#955db9"",""#48a782""]","[""#7f5d5d"",""#5f6f81""]","25","false","[0.342,0.299,0.368,0.724]","2","0",""
"","","","","","two-step-trial","64","648354","0.0-30.0-0.0","","","","","","","","","[0,1]","1","1","630","0","[1920,1080]","1","[0,1]","0","0","1131","1","0","[""#955db9"",""#48a782""]","[""#7f5d5d"",""#5f6f81""]","26","false","[0.362,0.294,0.373,0.738]","2","0",""
"","","","","","two-step-trial","65","651698","0.0-31.0-0.0","","","","","","","","","[0,1]","0","0","609","1","[1920,1080]","1","[0,1]","0","0","717","1","0","[""#955db9"",""#48a782""]","[""#7f5d5d"",""#5f6f81""]","27","false","[0.332,0.286,0.389,0.683]","2","0",""
"","","","","","two-step-trial","66","655222","0.0-32.0-0.0","","","","","","","","","[0,1]","0","0","744","0","[1920,1080]","1","[0,1]","0","0","763","1","0","[""#955db9"",""#48a782""]","[""#7f5d5d"",""#5f6f81""]","28","false","[0.34,0.303,0.383,0.689]","2","0",""
"","","","","","two-step-trial","67","658870","0.0-33.0-0.0","","","","","","","","","[2,3]","1","3","947","1","[1920,1080]","1","[0,1]","1","1","678","1","1","[""#955db9"",""#48a782""]","[""#7f5d5d"",""#5f6f81""]","29","false","[0.317,0.302,0.385,0.679]","2","0",""
"","","","","","two-step-trial","68","665922","0.0-34.0-0.0","","","","","","","","","[0,1]","1","1","4250","0","[1920,1080]","1","[0,1]","1","1","783","0","0","[""#955db9"",""#48a782""]","[""#7f5d5d"",""#5f6f81""]","30","false","[0.353,0.346,0.414,0.681]","2","0",""
"","","","","","two-step-trial","69","669606","0.0-35.0-0.0","","","","","","","","","[2,3]","1","3","1172","0","[1920,1080]","1","[0,1]","1","1","492","1","1","[""#955db9"",""#48a782""]","[""#7f5d5d"",""#5f6f81""]","31","false","[0.325,0.331,0.414,0.647]","2","0",""
"","","","","","two-step-trial","70","673978","0.0-36.0-0.0","","","","","","","","","[2,3]","1","3","1555","1","[1920,1080]","1","[0,1]","1","1","799","1","1","[""#955db9"",""#48a782""]","[""#7f5d5d"",""#5f6f81""]","32","false","[0.328,0.33,0.383,0.663]","2","0",""
"","","","","","two-step-trial","71","679254","0.0-37.0-0.0","","","","","","","","","[2,3]","1","3","2344","1","[1920,1080]","1","[0,1]","1","1","916","1","1","[""#955db9"",""#48a782""]","[""#7f5d5d"",""#5f6f81""]","33","false","[0.322,0.332,0.362,0.633]","2","0",""
"","","","","","two-step-trial","72","684410","0.0-38.0-0.0","","","","","","","","","[0,1]","0","0","2224","1","[1920,1080]","1","[0,1]","1","1","912","0","0","[""#955db9"",""#48a782""]","[""#7f5d5d"",""#5f6f81""]","34","false","[0.322,0.307,0.363,0.617]","2","0",""
"","","","","","two-step-trial","73","689041","0.0-39.0-0.0","","","","","","","","","[2,3]","1","3","1580","0","[1920,1080]","1","[0,1]","1","1","1044","1","1","[""#955db9"",""#48a782""]","[""#7f5d5d"",""#5f6f81""]","35","false","[0.297,0.336,0.333,0.65]","2","0",""
"","","","","","two-step-trial","74","692869","0.0-40.0-0.0","","","","","","","","","[2,3]","1","3","833","1","[1920,1080]","1","[0,1]","1","1","974","1","1","[""#955db9"",""#48a782""]","[""#7f5d5d"",""#5f6f81""]","36","false","[0.326,0.343,0.331,0.633]","2","0",""
"","","","","","two-step-trial","75","698799","0.0-41.0-0.0","","","","","","","","","[0,1]","0","0","2919","0","[1920,1080]","1","[0,1]","0","0","1000","1","0","[""#955db9"",""#48a782""]","[""#7f5d5d"",""#5f6f81""]","37","false","[0.318,0.324,0.327,0.612]","2","0",""
"","","","","","two-step-trial","76","703301","0.0-42.0-0.0","","","","","","","","","[0,1]","0","0","996","0","[1920,1080]","1","[0,1]","0","0","1478","1","0","[""#955db9"",""#48a782""]","[""#7f5d5d"",""#5f6f81""]","38","false","[0.304,0.324,0.319,0.591]","2","0",""
"","","","","","two-step-trial","77","706607","0.0-43.0-0.0","","","","","","","","","[0,1]","1","1","503","0","[1920,1080]","1","[0,1]","0","0","794","1","0","[""#955db9"",""#48a782""]","[""#7f5d5d"",""#5f6f81""]","39","false","[0.283,0.362,0.351,0.561]","2","0",""
"","","","","","two-step-trial","78","711509","0.0-44.0-0.0","","","","","","","","","[2,3]","1","3","958","0","[1920,1080]","1","[0,1]","1","1","1925","1","1","[""#955db9"",""#48a782""]","[""#7f5d5d"",""#5f6f81""]","40","false","[0.295,0.387,0.331,0.546]","2","0",""
"","","","","","two-step-trial","79","715295","0.0-45.0-0.0","","","","","","","","","[2,3]","1","3","1011","1","[1920,1080]","1","[0,1]","1","1","761","1","1","[""#955db9"",""#48a782""]","[""#7f5d5d"",""#5f6f81""]","41","false","[0.293,0.385,0.33,0.584]","2","0",""
"","","","","","two-step-trial","80","721048","0.0-46.0-0.0","","","","","","","","","[0,1]","1","1","2880","0","[1920,1080]","1","[0,1]","1","1","855","0","0","[""#955db9"",""#48a782""]","[""#7f5d5d"",""#5f6f81""]","42","false","[0.304,0.383,0.318,0.562]","2","0",""
"","","","","","two-step-trial","81","724860","0.0-47.0-0.0","","","","","","","","","[0,1]","0","0","942","1","[1920,1080]","1","[0,1]","1","1","845","0","0","[""#955db9"",""#48a782""]","[""#7f5d5d"",""#5f6f81""]","43","false","[0.318,0.398,0.315,0.576]","2","0",""
"","","","","","two-step-trial","82","728829","0.0-48.0-0.0","","","","","","","","","[2,3]","1","3","1401","0","[1920,1080]","1","[0,1]","1","1","537","1","1","[""#955db9"",""#48a782""]","[""#7f5d5d"",""#5f6f81""]","44","false","[0.321,0.371,0.348,0.616]","2","0",""
"","","","","","two-step-trial","83","735222","0.0-49.0-0.0","","","","","","","","","[0,1]","1","1","3657","1","[1920,1080]","1","[0,1]","1","1","721","0","0","[""#955db9"",""#48a782""]","[""#7f5d5d"",""#5f6f81""]","45","false","[0.319,0.418,0.367,0.598]","2","0",""
"","","","","","two-step-trial","84","739529","0.0-50.0-0.0","","","","","","","","","[2,3]","1","3","1551","0","[1920,1080]","1","[0,1]","1","1","743","1","1","[""#955db9"",""#48a782""]","[""#7f5d5d"",""#5f6f81""]","46","false","[0.326,0.44,0.366,0.588]","2","0",""
"","","","","","two-step-trial","85","743387","0.0-51.0-0.0","","","","","","","","","[2,3]","0","2","1020","0","[1920,1080]","1","[0,1]","1","1","830","1","1","[""#955db9"",""#48a782""]","[""#7f5d5d"",""#5f6f81""]","47","false","[0.315,0.46,0.378,0.597]","2","0",""
"","","","","","two-step-trial","86","747026","0.0-52.0-0.0","","","","","","","","","[2,3]","0","2","534","1","[1920,1080]","1","[0,1]","1","1","1089","1","1","[""#955db9"",""#48a782""]","[""#7f5d5d"",""#5f6f81""]","48","false","[0.281,0.476,0.36,0.571]","2","0",""
"","","","","","two-step-trial","87","750776","0.0-53.0-0.0","","","","","","","","","[2,3]","0","2","635","1","[1920,1080]","1","[0,1]","1","1","1108","1","1","[""#955db9"",""#48a782""]","[""#7f5d5d"",""#5f6f81""]","49","false","[0.254,0.439,0.383,0.579]","2","0",""
"","","","","","two-step-trial","88","755239","0.0-54.0-0.0","","","","","","","","","[2,3]","1","3","1293","1","[1920,1080]","1","[0,1]","1","1","1142","1","1","[""#955db9"",""#48a782""]","[""#7f5d5d"",""#5f6f81""]","50","false","[0.303,0.471,0.392,0.592]","2","0",""
"","","","","","two-step-trial","89","764604","0.0-55.0-0.0","","","","","","","","","[0,1]","0","0","6037","0","[1920,1080]","1","[0,1]","1","1","1310","0","0","[""#955db9"",""#48a782""]","[""#7f5d5d"",""#5f6f81""]","51","false","[0.274,0.41,0.377,0.587]","2","0",""
"","","","","","two-step-trial","90","769048","0.0-56.0-0.0","","","","","","","","","[0,1]","0","0","1837","0","[1920,1080]","1","[0,1]","1","1","594","0","0","[""#955db9"",""#48a782""]","[""#7f5d5d"",""#5f6f81""]","52","false","[0.29,0.413,0.363,0.572]","2","0",""
"","","","","","two-step-trial","91","774673","0.0-57.0-0.0","","","","","","","","","[2,3]","0","2","2924","0","[1920,1080]","1","[0,1]","1","1","688","1","1","[""#955db9"",""#48a782""]","[""#7f5d5d"",""#5f6f81""]","53","false","[0.292,0.425,0.318,0.522]","2","0",""
"","","","","","two-step-trial","92","778893","0.0-58.0-0.0","","","","","","","","","[0,1]","1","1","1769","0","[1920,1080]","1","[0,1]","1","1","430","0","0","[""#955db9"",""#48a782""]","[""#7f5d5d"",""#5f6f81""]","54","false","[0.284,0.449,0.332,0.552]","2","0",""
"","","","","","two-step-trial","93","782775","0.0-59.0-0.0","","","","","","","","","[2,3]","1","3","1059","1","[1920,1080]","1","[0,1]","0","0","809","0","1","[""#955db9"",""#48a782""]","[""#7f5d5d"",""#5f6f81""]","55","false","[0.253,0.41,0.344,0.579]","2","0",""
"","","","","","two-step-trial","94","787132","0.0-60.0-0.0","","","","","","","","","[0,1]","0","0","1842","0","[1920,1080]","1","[0,1]","0","0","503","1","0","[""#955db9"",""#48a782""]","[""#7f5d5d"",""#5f6f81""]","56","false","[0.277,0.408,0.373,0.526]","2","0",""
"","","","","","two-step-trial","95","791716","0.0-61.0-0.0","","","","","","","","","[0,1]","0","0","1981","0","[1920,1080]","1","[0,1]","0","0","595","1","0","[""#955db9"",""#48a782""]","[""#7f5d5d"",""#5f6f81""]","57","false","[0.252,0.418,0.356,0.521]","2","0",""
"","","","","","two-step-trial","96","795059","0.0-62.0-0.0","","","","","","","","","[0,1]","1","1","687","1","[1920,1080]","1","[0,1]","0","0","633","1","0","[""#955db9"",""#48a782""]","[""#7f5d5d"",""#5f6f81""]","58","false","[0.282,0.462,0.395,0.504]","2","0",""
"","","","","","two-step-trial","97","798406","0.0-63.0-0.0","","","","","","","","","[0,1]","1","1","744","0","[1920,1080]","1","[0,1]","0","0","588","1","0","[""#955db9"",""#48a782""]","[""#7f5d5d"",""#5f6f81""]","59","false","[0.297,0.475,0.39,0.498]","2","0",""
"","","","","","two-step-trial","98","801818","0.0-64.0-0.0","","","","","","","","","[0,1]","0","0","729","1","[1920,1080]","1","[0,1]","0","0","673","1","0","[""#955db9"",""#48a782""]","[""#7f5d5d"",""#5f6f81""]","60","false","[0.295,0.463,0.364,0.52]","2","0",""
"","","","","","two-step-trial","99","809576","0.0-65.0-0.0","","","","","","","","","[2,3]","0","2","4694","0","[1920,1080]","1","[0,1]","0","0","1051","0","1","[""#955db9"",""#48a782""]","[""#7f5d5d"",""#5f6f81""]","61","false","[0.295,0.433,0.355,0.543]","2","0",""
"","","","","","two-step-trial","100","814790","0.0-66.0-0.0","","","","","","","","","[0,1]","0","0","2790","0","[1920,1080]","1","[0,1]","0","0","398","1","0","[""#955db9"",""#48a782""]","[""#7f5d5d"",""#5f6f81""]","62","false","[0.307,0.43,0.353,0.543]","2","0",""
"","","","","","two-step-trial","101","817957","0.0-67.0-0.0","","","","","","","","","[0,1]","1","1","652","0","[1920,1080]","1","[0,1]","0","0","503","1","0","[""#955db9"",""#48a782""]","[""#7f5d5d"",""#5f6f81""]","63","false","[0.353,0.426,0.367,0.529]","2","0",""
"","","","","","two-step-trial","102","820979","0.0-68.0-0.0","","","","","","","","","[0,1]","0","0","555","0","[1920,1080]","1","[0,1]","0","0","457","1","0","[""#955db9"",""#48a782""]","[""#7f5d5d"",""#5f6f81""]","64","false","[0.37,0.432,0.33,0.47]","2","0",""
"","","","","","two-step-trial","103","823585","0.0-69.0-0.0","","","","","","","","","[2,3]","0","2","462","0","[1920,1080]","1","[0,1]","0","0","123","0","1","[""#955db9"",""#48a782""]","[""#7f5d5d"",""#5f6f81""]","65","false","[0.377,0.393,0.348,0.501]","2","0",""
"","","","","","two-step-trial","104","827019","0.0-70.0-0.0","","","","","","","","","[0,1]","1","1","776","1","[1920,1080]","1","[0,1]","0","0","645","1","0","[""#955db9"",""#48a782""]","[""#7f5d5d"",""#5f6f81""]","66","false","[0.345,0.371,0.258,0.459]","2","0",""
"","","","","","two-step-trial","105","830461","0.0-71.0-0.0","","","","","","","","","[0,1]","1","1","876","0","[1920,1080]","1","[0,1]","0","0","546","1","0","[""#955db9"",""#48a782""]","[""#7f5d5d"",""#5f6f81""]","67","false","[0.332,0.355,0.256,0.426]","2","0",""
"","","","","","two-step-trial","106","834835","0.0-72.0-0.0","","","","","","","","","[2,3]","1","3","1924","0","[1920,1080]","1","[0,1]","1","1","442","1","1","[""#955db9"",""#48a782""]","[""#7f5d5d"",""#5f6f81""]","68","false","[0.331,0.398,0.311,0.426]","2","0",""
"","","","","","two-step-trial","107","838361","0.0-73.0-0.0","","","","","","","","","[2,3]","0","2","1075","0","[1920,1080]","1","[0,1]","1","1","435","1","1","[""#955db9"",""#48a782""]","[""#7f5d5d"",""#5f6f81""]","69","false","[0.325,0.426,0.326,0.384]","2","0",""
"","","","","","two-step-trial","108","841368","0.0-74.0-0.0","","","","","","","","","[2,3]","1","3","511","1","[1920,1080]","1","[0,1]","1","1","484","1","1","[""#955db9"",""#48a782""]","[""#7f5d5d"",""#5f6f81""]","70","false","[0.293,0.475,0.305,0.375]","2","0",""
"","","","","","two-step-trial","109","844764","0.0-75.0-0.0","","","","","","","","","[2,3]","1","3","609","0","[1920,1080]","1","[0,1]","1","1","766","1","1","[""#955db9"",""#48a782""]","[""#7f5d5d"",""#5f6f81""]","71","false","[0.268,0.51,0.303,0.365]","2","0",""
"","","","","","two-step-trial","110","851762","0.0-76.0-0.0","","","","","","","","","[0,1]","1","1","4089","1","[1920,1080]","1","[0,1]","1","1","882","0","0","[""#955db9"",""#48a782""]","[""#7f5d5d"",""#5f6f81""]","72","false","[0.294,0.507,0.326,0.359]","2","0",""
"","","","","","two-step-trial","111","855787","0.0-77.0-0.0","","","","","","","","","[2,3]","1","3","1250","0","[1920,1080]","1","[0,1]","1","1","763","1","1","[""#955db9"",""#48a782""]","[""#7f5d5d"",""#5f6f81""]","73","false","[0.296,0.541,0.313,0.367]","2","0",""
"","","","","","two-step-trial","112","859979","0.0-78.0-0.0","","","","","","","","","[0,1]","1","1","1377","1","[1920,1080]","1","[0,1]","1","1","787","0","0","[""#955db9"",""#48a782""]","[""#7f5d5d"",""#5f6f81""]","74","false","[0.282,0.491,0.339,0.374]","2","0",""
"","","","","","two-step-trial","113","863938","0.0-79.0-0.0","","","","","","","","","[0,1]","1","1","956","0","[1920,1080]","1","[0,1]","1","1","978","0","0","[""#955db9"",""#48a782""]","[""#7f5d5d"",""#5f6f81""]","75","false","[0.336,0.513,0.333,0.367]","2","0",""
"","","","","","two-step-instructions","114","876319","0.0-80.0","12381","","","[{""page_index"":0,""viewing_time"":9215},{""page_index"":1,""viewing_time"":3165}]","","","","","","","","","","","","","","","","","","","","","","","","",""
"","","","","","two-step-trial","115","883535","0.0-81.0-0.0","","","","","","","","","[2,3]","0","2","2243","0","[1920,1080]","1","[0,1]","0","0","2951","0","1","[""#955db9"",""#48a782""]","[""#7f5d5d"",""#5f6f81""]","76","false","[0.344,0.538,0.274,0.339]","2","0",""
"","","","","","two-step-trial","116","889346","0.0-82.0-0.0","","","","","","","","","[2,3]","0","2","2385","0","[1920,1080]","1","[0,1]","0","0","1407","0","1","[""#955db9"",""#48a782""]","[""#7f5d5d"",""#5f6f81""]","77","false","[0.322,0.54,0.262,0.343]","2","0",""
"","","","","","two-step-trial","117","892759","0.0-83.0-0.0","","","","","","","","","[2,3]","1","3","758","1","[1920,1080]","1","[0,1]","0","0","643","0","1","[""#955db9"",""#48a782""]","[""#7f5d5d"",""#5f6f81""]","78","false","[0.351,0.561,0.265,0.342]","2","0",""
"","","","","","two-step-trial","118","899336","0.0-84.0-0.0","","","","","","","","","[0,1]","0","0","3554","1","[1920,1080]","1","[0,1]","0","0","1014","1","0","[""#955db9"",""#48a782""]","[""#7f5d5d"",""#5f6f81""]","79","false","[0.335,0.543,0.286,0.35]","2","0",""
"","","","","","two-step-trial","119","903218","0.0-85.0-0.0","","","","","","","","","[0,1]","0","0","1097","0","[1920,1080]","1","[0,1]","0","0","765","1","0","[""#955db9"",""#48a782""]","[""#7f5d5d"",""#5f6f81""]","80","false","[0.328,0.536,0.289,0.405]","2","0",""
"","","","","","two-step-trial","120","906734","0.0-86.0-0.0","","","","","","","","","[0,1]","1","1","696","1","[1920,1080]","1","[0,1]","0","0","795","1","0","[""#955db9"",""#48a782""]","[""#7f5d5d"",""#5f6f81""]","81","false","[0.286,0.534,0.265,0.391]","2","0",""
"","","","","","two-step-trial","121","911090","0.0-87.0-0.0","","","","","","","","","[0,1]","1","1","1335","0","[1920,1080]","1","[0,1]","0","0","1015","1","0","[""#955db9"",""#48a782""]","[""#7f5d5d"",""#5f6f81""]","82","false","[0.307,0.553,0.256,0.373]","2","0",""
"","","","","","two-step-trial","122","914948","0.0-88.0-0.0","","","","","","","","","[0,1]","0","0","1092","1","[1920,1080]","1","[0,1]","0","0","741","1","0","[""#955db9"",""#48a782""]","[""#7f5d5d"",""#5f6f81""]","83","false","[0.306,0.564,0.273,0.38]","2","0",""
"","","","","","two-step-trial","123","922025","0.0-89.0-0.0","","","","","","","","","[2,3]","1","3","4213","0","[1920,1080]","1","[0,1]","0","0","851","0","1","[""#955db9"",""#48a782""]","[""#7f5d5d"",""#5f6f81""]","84","false","[0.263,0.564,0.275,0.397]","2","0",""
"","","","","","two-step-trial","124","927390","0.0-90.0-0.0","","","","","","","","","[0,1]","1","1","2511","0","[1920,1080]","1","[0,1]","0","0","845","1","0","[""#955db9"",""#48a782""]","[""#7f5d5d"",""#5f6f81""]","85","false","[0.295,0.592,0.3,0.406]","2","0",""
"","","","","","two-step-trial","125","931223","0.0-91.0-0.0","","","","","","","","","[0,1]","0","0","1364","0","[1920,1080]","1","[0,1]","0","0","447","1","0","[""#955db9"",""#48a782""]","[""#7f5d5d"",""#5f6f81""]","86","false","[0.266,0.571,0.324,0.417]","2","0",""
"","","","","","two-step-trial","126","935571","0.0-92.0-0.0","","","","","","","","","[2,3]","0","2","1546","1","[1920,1080]","1","[0,1]","0","0","782","0","1","[""#955db9"",""#48a782""]","[""#7f5d5d"",""#5f6f81""]","87","false","[0.25,0.532,0.345,0.39]","2","0",""
"","","","","","two-step-trial","127","940715","0.0-93.0-0.0","","","","","","","","","[2,3]","0","2","2037","0","[1920,1080]","1","[0,1]","1","1","1091","1","1","[""#955db9"",""#48a782""]","[""#7f5d5d"",""#5f6f81""]","88","false","[0.258,0.529,0.341,0.378]","2","0",""
"","","","","","two-step-trial","128","944063","0.0-94.0-0.0","","","","","","","","","[2,3]","0","2","796","1","[1920,1080]","1","[0,1]","1","1","523","1","1","[""#955db9"",""#48a782""]","[""#7f5d5d"",""#5f6f81""]","89","false","[0.266,0.533,0.306,0.41]","2","0",""
"","","","","","two-step-trial","129","948774","0.0-95.0-0.0","","","","","","","","","[2,3]","1","3","1549","0","[1920,1080]","1","[0,1]","1","1","1135","1","1","[""#955db9"",""#48a782""]","[""#7f5d5d"",""#5f6f81""]","90","false","[0.254,0.554,0.297,0.382]","2","0",""
"","","","","","two-step-trial","130","953272","0.0-96.0-0.0","","","","","","","","","[0,1]","0","0","1602","0","[1920,1080]","1","[0,1]","1","1","888","0","0","[""#955db9"",""#48a782""]","[""#7f5d5d"",""#5f6f81""]","91","false","[0.265,0.543,0.313,0.38]","2","0",""
"","","","","","two-step-trial","131","957950","0.0-97.0-0.0","","","","","","","","","[2,3]","0","2","2207","0","[1920,1080]","1","[0,1]","1","1","455","1","1","[""#955db9"",""#48a782""]","[""#7f5d5d"",""#5f6f81""]","92","false","[0.259,0.54,0.279,0.363]","2","0",""
"","","","","","two-step-trial","132","963154","0.0-98.0-0.0","","","","","","","","","[2,3]","1","3","2611","0","[1920,1080]","1","[0,1]","1","1","576","1","1","[""#955db9"",""#48a782""]","[""#7f5d5d"",""#5f6f81""]","93","false","[0.251,0.565,0.296,0.35]","2","0",""
"","","","","","two-step-trial","133","967766","0.0-99.0-0.0","","","","","","","","","[2,3]","0","2","1289","1","[1920,1080]","1","[0,1]","0","0","1308","0","1","[""#955db9"",""#48a782""]","[""#7f5d5d"",""#5f6f81""]","94","false","[0.276,0.543,0.275,0.322]","2","0",""
"","","","","","two-step-trial","134","973433","0.0-100.0-0.0","","","","","","","","","[0,1]","1","1","2903","0","[1920,1080]","1","[0,1]","0","0","752","1","0","[""#955db9"",""#48a782""]","[""#7f5d5d"",""#5f6f81""]","95","false","[0.317,0.539,0.285,0.291]","2","0",""
"","","","","","two-step-trial","135","976589","0.0-101.0-0.0","","","","","","","","","[0,1]","0","0","655","0","[1920,1080]","1","[0,1]","0","0","486","1","0","[""#955db9"",""#48a782""]","[""#7f5d5d"",""#5f6f81""]","96","false","[0.325,0.583,0.251,0.276]","2","0",""
"","","","","","two-step-trial","136","980047","0.0-102.0-0.0","","","","","","","","","[0,1]","0","0","750","0","[1920,1080]","1","[0,1]","0","0","696","1","0","[""#955db9"",""#48a782""]","[""#7f5d5d"",""#5f6f81""]","97","false","[0.352,0.597,0.278,0.336]","2","0",""
"","","","","","two-step-trial","137","983297","0.0-103.0-0.0","","","","","","","","","[0,1]","1","1","645","1","[1920,1080]","1","[0,1]","0","0","598","1","0","[""#955db9"",""#48a782""]","[""#7f5d5d"",""#5f6f81""]","98","false","[0.369,0.601,0.316,0.324]","2","0",""
"","","","","","two-step-trial","138","986683","0.0-104.0-0.0","","","","","","","","","[0,1]","0","0","752","0","[1920,1080]","1","[0,1]","0","0","629","1","0","[""#955db9"",""#48a782""]","[""#7f5d5d"",""#5f6f81""]","99","false","[0.338,0.574,0.29,0.307]","2","0",""
"","","","","","two-step-trial","139","990359","0.0-105.0-0.0","","","","","","","","","[0,1]","1","1","777","1","[1920,1080]","1","[0,1]","0","0","875","1","0","[""#955db9"",""#48a782""]","[""#7f5d5d"",""#5f6f81""]","100","false","[0.348,0.567,0.294,0.264]","2","0",""
"","","","","","two-step-trial","140","994411","0.0-106.0-0.0","","","","","","","","","[2,3]","1","3","1125","1","[1920,1080]","1","[0,1]","1","1","911","1","1","[""#955db9"",""#48a782""]","[""#7f5d5d"",""#5f6f81""]","101","false","[0.332,0.536,0.335,0.261]","2","0",""
"","","","","","two-step-trial","141","998722","0.0-107.0-0.0","","","","","","","","","[2,3]","1","3","1447","0","[1920,1080]","1","[0,1]","1","1","858","1","1","[""#955db9"",""#48a782""]","[""#7f5d5d"",""#5f6f81""]","102","false","[0.331,0.521,0.359,0.268]","2","0",""
"","","","","","two-step-trial","142","1002505","0.0-108.0-0.0","","","","","","","","","[2,3]","0","2","975","1","[1920,1080]","1","[0,1]","1","1","788","1","1","[""#955db9"",""#48a782""]","[""#7f5d5d"",""#5f6f81""]","103","false","[0.317,0.518,0.371,0.309]","2","0",""
"","","","","","two-step-trial","143","1006433","0.0-109.0-0.0","","","","","","","","","[2,3]","0","2","948","1","[1920,1080]","1","[0,1]","1","1","973","1","1","[""#955db9"",""#48a782""]","[""#7f5d5d"",""#5f6f81""]","104","false","[0.334,0.493,0.341,0.296]","2","0",""
"","","","","","two-step-trial","144","1012609","0.0-110.0-0.0","","","","","","","","","[0,1]","0","0","3541","0","[1920,1080]","1","[0,1]","1","1","629","0","0","[""#955db9"",""#48a782""]","[""#7f5d5d"",""#5f6f81""]","105","false","[0.349,0.494,0.34,0.27]","2","0",""
"","","","","","two-step-trial","145","1016908","0.0-111.0-0.0","","","","","","","","","[2,3]","0","2","1678","0","[1920,1080]","1","[0,1]","1","1","604","1","1","[""#955db9"",""#48a782""]","[""#7f5d5d"",""#5f6f81""]","106","false","[0.302,0.497,0.307,0.282]","2","0",""
"","","","","","two-step-trial","146","1020613","0.0-112.0-0.0","","","","","","","","","[0,1]","0","0","1138","0","[1920,1080]","1","[0,1]","1","1","538","0","0","[""#955db9"",""#48a782""]","[""#7f5d5d"",""#5f6f81""]","107","false","[0.336,0.523,0.294,0.315]","2","0",""
"","","","","","two-step-trial","147","1024259","0.0-113.0-0.0","","","","","","","","","[0,1]","1","1","661","1","[1920,1080]","1","[0,1]","1","1","970","0","0","[""#955db9"",""#48a782""]","[""#7f5d5d"",""#5f6f81""]","108","false","[0.381,0.482,0.317,0.324]","2","0",""
"","","","","","two-step-trial","148","1029749","0.0-114.0-0.0","","","","","","","","","[2,3]","0","2","2002","0","[1920,1080]","1","[0,1]","1","1","1459","1","1","[""#955db9"",""#48a782""]","[""#7f5d5d"",""#5f6f81""]","109","false","[0.342,0.505,0.32,0.33]","2","0",""
"","","","","","two-step-trial","149","1033287","0.0-115.0-0.0","","","","","","","","","[2,3]","1","3","568","0","[1920,1080]","1","[0,1]","1","1","937","1","1","[""#955db9"",""#48a782""]","[""#7f5d5d"",""#5f6f81""]","110","false","[0.337,0.526,0.318,0.349]","2","0",""
"","","","","","two-step-trial","150","1037793","0.0-116.0-0.0","","","","","","","","","[0,1]","0","0","1794","0","[1920,1080]","1","[0,1]","1","1","703","0","0","[""#955db9"",""#48a782""]","[""#7f5d5d"",""#5f6f81""]","111","false","[0.374,0.551,0.269,0.35]","2","0",""
"","","","","","two-step-trial","151","1041206","0.0-117.0-0.0","","","","","","","","","[0,1]","1","1","704","0","[1920,1080]","1","[0,1]","1","1","685","0","0","[""#955db9"",""#48a782""]","[""#7f5d5d"",""#5f6f81""]","112","false","[0.355,0.517,0.255,0.331]","2","0",""
"","","","","","two-step-trial","152","1045783","0.0-118.0-0.0","","","","","","","","","[2,3]","0","2","1310","0","[1920,1080]","1","[0,1]","0","0","1256","0","1","[""#955db9"",""#48a782""]","[""#7f5d5d"",""#5f6f81""]","113","false","[0.331,0.507,0.283,0.271]","2","0",""
"","","","","","two-step-trial","153","1049640","0.0-119.0-0.0","","","","","","","","","[0,1]","0","0","1411","0","[1920,1080]","1","[0,1]","0","0","439","1","0","[""#955db9"",""#48a782""]","[""#7f5d5d"",""#5f6f81""]","114","false","[0.326,0.467,0.284,0.267]","2","0",""
"","","","","","two-step-trial","154","1054070","0.0-120.0-0.0","","","","","","","","","[2,3]","1","3","1732","0","[1920,1080]","1","[0,1]","0","0","671","0","1","[""#955db9"",""#48a782""]","[""#7f5d5d"",""#5f6f81""]","115","false","[0.313,0.494,0.291,0.251]","2","0",""
"","","","","","two-step-trial","155","1058534","0.0-121.0-0.0","","","","","","","","","[0,1]","1","1","1267","0","[1920,1080]","1","[0,1]","0","0","1177","1","0","[""#955db9"",""#48a782""]","[""#7f5d5d"",""#5f6f81""]","116","false","[0.319,0.494,0.296,0.273]","2","0",""
"","","","","","two-step-trial","156","1063389","0.0-122.0-0.0","","","","","","","","","[0,1]","0","0","2323","1","[1920,1080]","1","[0,1]","0","0","514","1","0","[""#955db9"",""#48a782""]","[""#7f5d5d"",""#5f6f81""]","117","false","[0.297,0.492,0.312,0.277]","2","0",""
"","","","","","two-step-trial","157","1066858","0.0-123.0-0.0","","","","","","","","","[0,1]","0","0","855","0","[1920,1080]","1","[0,1]","0","0","601","1","0","[""#955db9"",""#48a782""]","[""#7f5d5d"",""#5f6f81""]","118","false","[0.288,0.513,0.36,0.275]","2","0",""
"","","","","","two-step-trial","158","1071298","0.0-124.0-0.0","","","","","","","","","[2,3]","0","2","1884","0","[1920,1080]","1","[0,1]","0","0","540","0","1","[""#955db9"",""#48a782""]","[""#7f5d5d"",""#5f6f81""]","119","false","[0.304,0.552,0.392,0.266]","2","0",""
"","","","","","two-step-trial","159","1075519","0.0-125.0-0.0","","","","","","","","","[0,1]","0","0","1614","0","[1920,1080]","1","[0,1]","0","0","588","1","0","[""#955db9"",""#48a782""]","[""#7f5d5d"",""#5f6f81""]","120","false","[0.295,0.538,0.367,0.253]","2","0",""
"","","","","","two-step-trial","160","1079504","0.0-126.0-0.0","","","","","","","","","[2,3]","1","3","1514","0","[1920,1080]","1","[0,1]","0","0","455","0","1","[""#955db9"",""#48a782""]","[""#7f5d5d"",""#5f6f81""]","121","false","[0.268,0.49,0.389,0.267]","2","0",""
"","","","","","two-step-trial","161","1082944","0.0-127.0-0.0","","","","","","","","","[0,1]","0","0","820","0","[1920,1080]","1","[0,1]","0","0","598","1","0","[""#955db9"",""#48a782""]","[""#7f5d5d"",""#5f6f81""]","122","false","[0.292,0.548,0.366,0.262]","2","0",""
"","","","","","two-step-trial","162","1086564","0.0-128.0-0.0","","","","","","","","","[0,1]","1","1","1157","1","[1920,1080]","1","[0,1]","0","0","446","1","0","[""#955db9"",""#48a782""]","[""#7f5d5d"",""#5f6f81""]","123","false","[0.287,0.579,0.38,0.276]","2","0",""
"","","","","","two-step-trial","163","1090700","0.0-129.0-0.0","","","","","","","","","[0,1]","1","1","648","0","[1920,1080]","1","[0,1]","0","0","1474","1","0","[""#955db9"",""#48a782""]","[""#7f5d5d"",""#5f6f81""]","124","false","[0.296,0.64,0.405,0.262]","2","0",""
"","","","","","two-step-trial","164","1094759","0.0-130.0-0.0","","","","","","","","","[0,1]","0","0","963","0","[1920,1080]","1","[0,1]","0","0","1082","1","0","[""#955db9"",""#48a782""]","[""#7f5d5d"",""#5f6f81""]","125","false","[0.25,0.637,0.448,0.25]","2","0",""
"","","","","","two-step-trial","165","1098650","0.0-131.0-0.0","","","","","","","","","[2,3]","1","3","1311","0","[1920,1080]","1","[0,1]","0","0","559","0","1","[""#955db9"",""#48a782""]","[""#7f5d5d"",""#5f6f81""]","126","false","[0.255,0.666,0.447,0.257]","2","0",""
"","","","","","two-step-trial","166","1102282","0.0-132.0-0.0","","","","","","","","","[2,3]","0","2","942","1","[1920,1080]","1","[0,1]","0","0","676","0","1","[""#955db9"",""#48a782""]","[""#7f5d5d"",""#5f6f81""]","127","false","[0.281,0.695,0.433,0.272]","2","0",""
"","","","","","two-step-trial","167","1106825","0.0-133.0-0.0","","","","","","","","","[0,1]","1","1","1400","1","[1920,1080]","1","[0,1]","0","0","1133","1","0","[""#955db9"",""#48a782""]","[""#7f5d5d"",""#5f6f81""]","128","false","[0.277,0.667,0.42,0.278]","2","0",""
"","","","","","two-step-trial","168","1111529","0.0-134.0-0.0","","","","","","","","","[0,1]","1","1","1938","1","[1920,1080]","1","[0,1]","0","0","741","1","0","[""#955db9"",""#48a782""]","[""#7f5d5d"",""#5f6f81""]","129","false","[0.318,0.661,0.46,0.294]","2","0",""
"","","","","","two-step-trial","169","1115373","0.0-135.0-0.0","","","","","","","","","[0,1]","0","0","822","0","[1920,1080]","1","[0,1]","0","0","1006","1","0","[""#955db9"",""#48a782""]","[""#7f5d5d"",""#5f6f81""]","130","false","[0.306,0.677,0.461,0.259]","2","0",""
"","","","","","two-step-trial","170","1118750","0.0-136.0-0.0","","","","","","","","","[0,1]","1","1","758","0","[1920,1080]","1","[0,1]","0","0","593","1","0","[""#955db9"",""#48a782""]","[""#7f5d5d"",""#5f6f81""]","131","false","[0.35,0.655,0.474,0.278]","2","0",""
"","","","","","two-step-trial","171","1122078","0.0-137.0-0.0","","","","","","","","","[0,1]","0","0","755","0","[1920,1080]","1","[0,1]","0","0","559","1","0","[""#955db9"",""#48a782""]","[""#7f5d5d"",""#5f6f81""]","132","false","[0.352,0.663,0.445,0.297]","2","0",""
"","","","","","two-step-trial","172","1125906","0.0-138.0-0.0","","","","","","","","","[0,1]","0","0","1209","0","[1920,1080]","1","[0,1]","0","0","608","1","0","[""#955db9"",""#48a782""]","[""#7f5d5d"",""#5f6f81""]","133","false","[0.374,0.662,0.412,0.314]","2","0",""
"","","","","","two-step-trial","173","1129242","0.0-139.0-0.0","","","","","","","","","[2,3]","1","3","670","1","[1920,1080]","1","[0,1]","1","1","652","1","1","[""#955db9"",""#48a782""]","[""#7f5d5d"",""#5f6f81""]","134","false","[0.405,0.666,0.424,0.315]","2","0",""
"","","","","","two-step-trial","174","1134044","0.0-140.0-0.0","","","","","","","","","[0,1]","1","1","2037","1","[1920,1080]","1","[0,1]","1","1","741","0","0","[""#955db9"",""#48a782""]","[""#7f5d5d"",""#5f6f81""]","135","false","[0.43,0.696,0.452,0.345]","2","0",""
"","","","","","two-step-trial","175","1138188","0.0-141.0-0.0","","","","","","","","","[2,3]","1","3","1315","0","[1920,1080]","1","[0,1]","1","1","802","1","1","[""#955db9"",""#48a782""]","[""#7f5d5d"",""#5f6f81""]","136","false","[0.426,0.681,0.444,0.337]","2","0",""
"","","","","","two-step-trial","176","1141962","0.0-142.0-0.0","","","","","","","","","[0,1]","1","1","1224","0","[1920,1080]","1","[0,1]","1","1","530","0","0","[""#955db9"",""#48a782""]","[""#7f5d5d"",""#5f6f81""]","137","false","[0.411,0.674,0.45,0.299]","2","0",""
"","","","","","two-step-trial","177","1145918","0.0-143.0-0.0","","","","","","","","","[2,3]","1","3","1315","0","[1920,1080]","1","[0,1]","1","1","613","1","1","[""#955db9"",""#48a782""]","[""#7f5d5d"",""#5f6f81""]","138","false","[0.414,0.699,0.459,0.339]","2","0",""
"","","","","","two-step-trial","178","1149207","0.0-144.0-0.0","","","","","","","","","[2,3]","1","3","669","1","[1920,1080]","1","[0,1]","1","1","608","1","1","[""#955db9"",""#48a782""]","[""#7f5d5d"",""#5f6f81""]","139","false","[0.394,0.734,0.462,0.307]","2","0",""
"","","","","","two-step-trial","179","1153235","0.0-145.0-0.0","","","","","","","","","[0,1]","1","1","1142","0","[1920,1080]","1","[0,1]","1","1","871","0","0","[""#955db9"",""#48a782""]","[""#7f5d5d"",""#5f6f81""]","140","false","[0.361,0.693,0.467,0.292]","2","0",""
"","","","","","two-step-trial","180","1156584","0.0-146.0-0.0","","","","","","","","","[0,1]","0","0","881","0","[1920,1080]","1","[0,1]","1","1","451","0","0","[""#955db9"",""#48a782""]","[""#7f5d5d"",""#5f6f81""]","141","false","[0.354,0.722,0.46,0.26]","2","0",""
"","","","","","two-step-trial","181","1160259","0.0-147.0-0.0","","","","","","","","","[2,3]","1","3","1314","0","[1920,1080]","1","[0,1]","1","1","350","1","1","[""#955db9"",""#48a782""]","[""#7f5d5d"",""#5f6f81""]","142","false","[0.353,0.749,0.428,0.301]","2","0",""
"","","","","","two-step-trial","182","1164490","0.0-148.0-0.0","","","","","","","","","[2,3]","0","2","1791","1","[1920,1080]","1","[0,1]","1","1","412","1","1","[""#955db9"",""#48a782""]","[""#7f5d5d"",""#5f6f81""]","143","false","[0.361,0.73,0.409,0.316]","2","0",""
"","","","","","two-step-trial","183","1168003","0.0-149.0-0.0","","","","","","","","","[2,3]","0","2","652","1","[1920,1080]","1","[0,1]","1","1","844","1","1","[""#955db9"",""#48a782""]","[""#7f5d5d"",""#5f6f81""]","144","false","[0.295,0.721,0.424,0.316]","2","0",""
"","","","","","two-step-trial","184","1171632","0.0-150.0-0.0","","","","","","","","","[2,3]","0","2","943","0","[1920,1080]","1","[0,1]","1","1","674","1","1","[""#955db9"",""#48a782""]","[""#7f5d5d"",""#5f6f81""]","145","false","[0.287,0.742,0.437,0.287]","2","0",""
"","","","","","two-step-trial","185","1174945","0.0-151.0-0.0","","","","","","","","","[2,3]","1","3","751","0","[1920,1080]","1","[0,1]","1","1","557","1","1","[""#955db9"",""#48a782""]","[""#7f5d5d"",""#5f6f81""]","146","false","[0.278,0.742,0.427,0.31]","2","0",""
"","","","","","two-step-trial","186","1178398","0.0-152.0-0.0","","","","","","","","","[2,3]","1","3","749","0","[1920,1080]","1","[0,1]","1","1","685","1","1","[""#955db9"",""#48a782""]","[""#7f5d5d"",""#5f6f81""]","147","false","[0.277,0.741,0.475,0.282]","2","0",""
"","","","","","two-step-trial","187","1181736","0.0-153.0-0.0","","","","","","","","","[2,3]","1","3","544","0","[1920,1080]","1","[0,1]","1","1","777","1","1","[""#955db9"",""#48a782""]","[""#7f5d5d"",""#5f6f81""]","148","false","[0.264,0.733,0.497,0.268]","2","0",""
"","","","","","two-step-trial","188","1185582","0.0-154.0-0.0","","","","","","","","","[2,3]","0","2","600","0","[1920,1080]","1","[0,1]","1","1","1222","1","1","[""#955db9"",""#48a782""]","[""#7f5d5d"",""#5f6f81""]","149","false","[0.258,0.74,0.534,0.264]","2","0",""
"","","","","","two-step-trial","189","1189198","0.0-155.0-0.0","","","","","","","","","[0,1]","1","1","1003","1","[1920,1080]","1","[0,1]","1","1","592","0","0","[""#955db9"",""#48a782""]","[""#7f5d5d"",""#5f6f81""]","150","false","[0.326,0.735,0.576,0.271]","2","0",""
"","","","","","two-step-instructions","190","1203960","0.0-156.0","14761","","","[{""page_index"":0,""viewing_time"":14760}]","","","","","","","","","","","","","","","","","","","","","","","","",""
"","","","","","two-step-comprehension","191","1241604","0.0-157.0","37642","","","","[""purple"",""green""]","0","","","","","","","","","","","","","","","","","","","","","","","[{""event"":""focus"",""trial"":0,""time"":956},{""event"":""blur"",""trial"":0,""time"":2379},{""event"":""focus"",""trial"":1,""time"":6348},{""event"":""fullscreenenter"",""trial"":1,""time"":10773}]"
