"success","timeout","failed_images","failed_audio","failed_video","trial_type","trial_index","time_elapsed","internal_node_id","rt","stimulus","response","view_history","responses","num_errors","quiz","phase","state_2_ids","state_2_key","state_2_choice","state_2_rt","outcome","screen_resolution","minimum_resolution","state_1_ids","state_1_key","state_1_choice","state_1_rt","transition","state","rocket_colors","planet_colors","trial","missing","drifts","drift_ix","browser_interactions","interactions"
"true","false","[]","[]","[]","preload","0","164","0.0-0.0","","","","","","","","","","","","","","","","","","","","","","","","","","","","",""
"true","","","","","fullscreen","1","4624","0.0-1.0","","","","","","","","","","","","","","","","","","","","","","","","","","","","",""
"","","","","","html-keyboard-response","2","14585","0.0-2.0","9959","<p>You are starting a demo of the <b>two-step task.</b></p><p>To see the instructions, press the ""1"" key. To skip them, press the ""2"" key.</p>","1","","","","","","","","","","","","","","","","","","","","","","","","","",""
"","","","","","two-step-instructions","3","74408","0.0-3.0-0.0-1.0","59821","","","[{""page_index"":0,""viewing_time"":8397},{""page_index"":1,""viewing_time"":3777},{""page_index"":2,""viewing_time"":2391},{""page_index"":3,""viewing_time"":6842},{""page_index"":4,""viewing_time"":7935},{""page_index"":5,""viewing_time"":2296},{""page_index"":6,""viewing_time"":4656},{""page_index"":7,""viewing_time"":4600},{""page_index"":8,""viewing_time"":5167},{""page_index"":9,""viewing_time"":10113},{""page_index"":10,""viewing_time"":3647}]","","","","","","","","","","","","","","","","","","","","","","","","",""
"","","","","","two-step-comprehension","4","88522","0.0-3.0-0.0-2.0","14111","","","","[""left/right arrow keys"",""True"",""True""]","0","1","","","","","","","","","","","","","","","","","","","","","",""
"","","","","","two-step-instructions","5","96208","0.0-3.0-1.0-0.0-0.0","7684","","","[{""page_index"":0,""viewing_time"":7683}]","","","","instructions_1b","","","","","","","","","","","","","","","","","","","","",""
"","","","","","alien-practice","6","100341","0.0-3.0-1.0-1.0-0.0","","","","","","","","","[0,1]","0","0","1914","0","[1920,1080]","1","","","","","","","","","","","","","",""
"","","","","","alien-practice","7","103485","0.0-3.0-1.0-2.0-0.0","","","","","","","","","[0,1]","1","1","920","0","[1920,1080]","1","","","","","","","","","","","","","",""
"","","","","","alien-practice","8","106649","0.0-3.0-1.0-3.0-0.0","","","","","","","","","[0,1]","0","0","947","0","[1920,1080]","1","","","","","","","","","","","","","",""
"","","","","","alien-practice","9","109777","0.0-3.0-1.0-4.0-0.0","","","","","","","","","[0,1]","1","1","908","1","[1920,1080]","1","","","","","","","","","","","","","",""
"","","","","","alien-practice","10","112658","0.0-3.0-1.0-5.0-0.0","","","","","","","","","[0,1]","1","1","666","1","[1920,1080]","1","","","","","","","","","","","","","",""
"","","","","","alien-practice","11","115373","0.0-3.0-1.0-6.0-0.0","","","","","","","","","[0,1]","1","1","503","1","[1920,1080]","1","","","","","","","","","","","","","",""
"","","","","","two-step-instructions","12","146812","0.0-3.0-2.0-1.0","31437","","","[{""page_index"":0,""viewing_time"":5354},{""page_index"":1,""viewing_time"":3011},{""page_index"":2,""viewing_time"":6741},{""page_index"":3,""viewing_time"":9943},{""page_index"":4,""viewing_time"":4508},{""page_index"":5,""viewing_time"":1880}]","","","","","","","","","","","","","","","","","","","","","","","","",""
"","","","","","two-step-comprehension","13","165029","0.0-3.0-2.0-2.0","18215","","","","[""left/right arrow keys"",""False"",""True""]","0","2","","","","","","","","","","","","","","","","","","","","","",""
"","","","","","two-step-instructions","14","186924","0.0-3.0-3.0-0.0","21894","","","[{""page_index"":0,""viewing_time"":6951},{""page_index"":1,""viewing_time"":4975},{""page_index"":2,""viewing_time"":9968}]","","","","","","","","","","","","","","","","","","","","","","","","",""
"","","","","","two-step-trial","15","192745","0.0-3.0-3.0-1.0-0.0","","","","","","","","","[0,1]","0","0","1592","1","[1920,1080]","1","[0,1]","0","0","2218","1","0","[""#48a782"",""#955db9""]","[""#7f5d5d"",""#5f6f81""]","0","false","","","",""
"","","","","","two-step-trial","16","196762","0.0-3.0-3.0-1.0-0.1","","","","","","","","","[0,1]","0","0","924","1","[1920,1080]","1","[0,1]","0","0","1069","1","0","[""#48a782"",""#955db9""]","[""#7f5d5d"",""#5f6f81""]","0","false","","","",""
"","","","","","two-step-trial","17","201213","0.0-3.0-3.0-1.0-0.2","","","","","","","","","[0,1]","0","0","1045","1","[1920,1080]","1","[0,1]","0","0","1381","1","0","[""#48a782"",""#955db9""]","[""#7f5d5d"",""#5f6f81""]","0","false","","","",""
"","","","","","two-step-trial","18","205182","0.0-3.0-3.0-1.0-0.3","","","","","","","","","[0,1]","0","0","826","0","[1920,1080]","1","[0,1]","0","0","1113","1","0","[""#48a782"",""#955db9""]","[""#7f5d5d"",""#5f6f81""]","0","false","","","",""
"","","","","","two-step-trial","19","210366","0.0-3.0-3.0-1.0-0.4","","","","","","","","","[2,3]","1","3","1416","1","[1920,1080]","1","[0,1]","1","1","1752","1","1","[""#48a782"",""#955db9""]","[""#7f5d5d"",""#5f6f81""]","0","false","","","",""
"","","","","","two-step-trial","20","214006","0.0-3.0-3.0-1.0-0.5","","","","","","","","","[2,3]","1","3","621","0","[1920,1080]","1","[0,1]","1","1","1008","1","1","[""#48a782"",""#955db9""]","[""#7f5d5d"",""#5f6f81""]","0","false","","","",""
"","","","","","two-step-trial","21","218316","0.0-3.0-3.0-1.0-0.6","","","","","","","","","[2,3]","0","2","886","0","[1920,1080]","1","[0,1]","1","1","1408","1","1","[""#48a782"",""#955db9""]","[""#7f5d5d"",""#5f6f81""]","0","false","","","",""
"","","","","","two-step-trial","22","224362","0.0-3.0-3.0-1.0-0.7","","","","","","","","","[0,1]","1","1","2690","0","[1920,1080]","1","[0,1]","1","1","1332","0","0","[""#48a782"",""#955db9""]","[""#7f5d5d"",""#5f6f81""]","0","false","","","",""
"","","","","","two-step-trial","23","228308","0.0-3.0-3.0-1.0-0.8","","","","","","","","","[2,3]","1","3","956","1","[1920,1080]","1","[0,1]","1","1","973","1","1","[""#48a782"",""#955db9""]","[""#7f5d5d"",""#5f6f81""]","0","false","","","",""
"","","","","","two-step-trial","24","232761","0.0-3.0-3.0-1.0-0.9","","","","","","","","","[0,1]","0","0","1453","1","[1920,1080]","1","[0,1]","1","1","979","0","0","[""#48a782"",""#955db9""]","[""#7f5d5d"",""#5f6f81""]","0","false","","","",""
"","","","","","two-step-instructions","25","281815","0.0-3.0-4.0-1.0","49055","","","[{""page_index"":0,""viewing_time"":3328},{""page_index"":1,""viewing_time"":5343},{""page_index"":2,""viewing_time"":2695},{""page_index"":3,""viewing_time"":2836},{""page_index"":4,""viewing_time"":12021},{""page_index"":5,""viewing_time"":15361},{""page_index"":6,""viewing_time"":7471}]","","","","","","","","","","","","","","","","","","","","","","","","",""
"","","","","","two-step-comprehension","26","300558","0.0-3.0-4.0-2.0","18740","","","","[""True"",""False"",""True""]","0","3","","","","","","","","","","","","","","","","","","","","","",""
"","","","","","two-step-instructions","27","309776","0.0-4.0","9216","","","[{""page_index"":0,""viewing_time"":1951},{""page_index"":1,""viewing_time"":4020},{""page_index"":2,""viewing_time"":3245}]","","","","","","","","","","","","","","","","","","","","","","","","",""
"","","","","","two-step-trial","28","315751","0.0-5.0-0.0","","","","","","","","","[0,1]","0","0","1306","0","[1920,1080]","1","[0,1]","0","0","2656","1","0","[""#a75248"",""#486ea7""]","[""#5b7c65"",""#706081""]","1","false","[0.412,0.317,0.453,0.743]","2","0",""
"","","","","","two-step-trial","29","319644","0.0-6.0-0.0","","","","","","","","","[0,1]","1","1","926","0","[1920,1080]","1","[0,1]","0","0","958","1","0","[""#a75248"",""#486ea7""]","[""#5b7c65"",""#706081""]","2","false","[0.402,0.305,0.461,0.702]","2","0",""
"","","","","","two-step-trial","30","325024","0.0-7.0-0.0","","","","","","","","","[2,3]","0","2","1741","0","[1920,1080]","1","[0,1]","1","1","1626","1","1","[""#a75248"",""#486ea7""]","[""#5b7c65"",""#706081""]","3","false","[0.373,0.327,0.445,0.732]","2","0",""
"","","","","","two-step-trial","31","331007","0.0-8.0-0.0","","","","","","","","","[0,1]","0","0","3239","0","[1920,1080]","1","[0,1]","1","1","719","0","0","[""#a75248"",""#486ea7""]","[""#5b7c65"",""#706081""]","4","false","[0.381,0.303,0.418,0.736]","2","0",""
"","","","","","two-step-trial","32","335051","0.0-9.0-0.0","","","","","","","","","[0,1]","1","1","1296","0","[1920,1080]","1","[0,1]","1","1","735","0","0","[""#a75248"",""#486ea7""]","[""#5b7c65"",""#706081""]","5","false","[0.366,0.363,0.401,0.709]","2","0",""
"","","","","","two-step-trial","33","340979","0.0-10.0-0.0","","","","","","","","","[2,3]","1","3","2505","1","[1920,1080]","1","[0,1]","0","0","1403","0","1","[""#a75248"",""#486ea7""]","[""#5b7c65"",""#706081""]","6","false","[0.393,0.368,0.383,0.711]","2","0",""
"","","","","","two-step-trial","34","346653","0.0-11.0-0.0","","","","","","","","","[0,1]","0","0","2799","1","[1920,1080]","1","[0,1]","0","0","860","1","0","[""#a75248"",""#486ea7""]","[""#5b7c65"",""#706081""]","7","false","[0.4,0.405,0.425,0.678]","2","0",""
"","","","","","two-step-trial","35","351654","0.0-12.0-0.0","","","","","","","","","[0,1]","0","0","1872","0","[1920,1080]","1","[0,1]","0","0","1113","1","0","[""#a75248"",""#486ea7""]","[""#5b7c65"",""#706081""]","8","false","[0.383,0.388,0.415,0.699]","2","0",""
"","","","","","two-step-trial","36","355388","0.0-13.0-0.0","","","","","","","","","[0,1]","0","0","794","0","[1920,1080]","1","[0,1]","0","0","920","1","0","[""#a75248"",""#486ea7""]","[""#5b7c65"",""#706081""]","9","false","[0.347,0.439,0.405,0.713]","2","0",""
"","","","","","two-step-trial","37","358577","0.0-14.0-0.0","","","","","","","","","[0,1]","1","1","543","0","[1920,1080]","1","[0,1]","0","0","635","1","0","[""#a75248"",""#486ea7""]","[""#5b7c65"",""#706081""]","10","false","[0.367,0.459,0.46,0.731]","2","0",""
"","","","","","two-step-trial","38","363372","0.0-15.0-0.0","","","","","","","","","[0,1]","0","0","1368","0","[1920,1080]","1","[0,1]","0","0","1407","1","0","[""#a75248"",""#486ea7""]","[""#5b7c65"",""#706081""]","11","false","[0.397,0.451,0.461,0.701]","2","0",""
"","","","","","two-step-trial","39","368902","0.0-16.0-0.0","","","","","","","","","[2,3]","1","3","2138","0","[1920,1080]","1","[0,1]","1","1","1379","1","1","[""#a75248"",""#486ea7""]","[""#5b7c65"",""#706081""]","12","false","[0.357,0.426,0.459,0.707]","2","0",""
"","","","","","two-step-trial","40","372787","0.0-17.0-0.0","","","","","","","","","[2,3]","0","2","1137","0","[1920,1080]","1","[0,1]","1","1","736","1","1","[""#a75248"",""#486ea7""]","[""#5b7c65"",""#706081""]","13","false","[0.337,0.398,0.428,0.721]","2","0",""
"","","","","","two-step-trial","41","378678","0.0-18.0-0.0","","","","","","","","","[2,3]","1","3","3337","1","[1920,1080]","1","[0,1]","1","1","531","1","1","[""#a75248"",""#486ea7""]","[""#5b7c65"",""#706081""]","14","false","[0.283,0.408,0.384,0.719]","2","0",""
"","","","","","two-step-trial","42","384722","0.0-19.0-0.0","","","","","","","","","[0,1]","1","1","3425","1","[1920,1080]","1","[0,1]","1","1","601","0","0","[""#a75248"",""#486ea7""]","[""#5b7c65"",""#706081""]","15","false","[0.295,0.37,0.375,0.738]","2","0",""
"","","","","","two-step-trial","43","388658","0.0-20.0-0.0","","","","","","","","","[2,3]","1","3","1080","0","[1920,1080]","1","[0,1]","1","1","845","1","1","[""#a75248"",""#486ea7""]","[""#5b7c65"",""#706081""]","16","false","[0.305,0.343,0.325,0.713]","2","0",""
"","","","","","two-step-trial","44","392487","0.0-21.0-0.0","","","","","","","","","[2,3]","1","3","952","1","[1920,1080]","1","[0,1]","1","1","853","1","1","[""#a75248"",""#486ea7""]","[""#5b7c65"",""#706081""]","17","false","[0.305,0.313,0.334,0.705]","2","0",""
"","","","","","two-step-trial","45","396733","0.0-22.0-0.0","","","","","","","","","[0,1]","1","1","1453","1","[1920,1080]","1","[0,1]","1","1","775","0","0","[""#a75248"",""#486ea7""]","[""#5b7c65"",""#706081""]","18","false","[0.316,0.314,0.353,0.728]","2","0",""
"","","","","","two-step-trial","46","401344","0.0-23.0-0.0","","","","","","","","","[2,3]","0","2","1819","1","[1920,1080]","1","[0,1]","1","1","763","1","1","[""#a75248"",""#486ea7""]","[""#5b7c65"",""#706081""]","19","false","[0.317,0.335,0.368,0.745]","2","0",""
"","","","","","two-step-trial","47","405473","0.0-24.0-0.0","","","","","","","","","[0,1]","1","1","1142","1","[1920,1080]","1","[0,1]","1","1","975","0","0","[""#a75248"",""#486ea7""]","[""#5b7c65"",""#706081""]","20","false","[0.307,0.313,0.421,0.737]","2","0",""
"","","","","","two-step-trial","48","409666","0.0-25.0-0.0","","","","","","","","","[2,3]","0","2","1164","1","[1920,1080]","1","[0,1]","1","1","1013","1","1","[""#a75248"",""#486ea7""]","[""#5b7c65"",""#706081""]","21","false","[0.31,0.305,0.401,0.745]","2","0",""
"","","","","","two-step-trial","49","415307","0.0-26.0-0.0","","","","","","","","","[2,3]","0","2","2879","0","[1920,1080]","1","[0,1]","1","1","741","1","1","[""#a75248"",""#486ea7""]","[""#5b7c65"",""#706081""]","22","false","[0.326,0.31,0.391,0.735]","2","0",""
"","","","","","two-step-trial","50","419522","0.0-27.0-0.0","","","","","","","","","[0,1]","1","1","1338","0","[1920,1080]","1","[0,1]","1","1","858","0","0","[""#a75248"",""#486ea7""]","[""#5b7c65"",""#706081""]","23","false","[0.331,0.302,0.379,0.741]","2","0",""
"","","","","","two-step-trial","51","424113","0.0-28.0-0.0","","","","","","","","","[0,1]","1","1","1266","0","[1920,1080]","1","[0,1]","0","0","1308","1","0","[""#a75248"",""#486ea7""]","[""#5b7c65"",""#706081""]","24","false","[0.358,0.323,0.393,0.738]","2","0",""
"","","","","","two-step-trial","52","428395","0.0-29.0-0.0","","","","","","","","","[2,3]","1","3","1755","1","[1920,1080]","1","[0,1]","0","0","509","0","1","[""#a75248"",""#486ea7""]","[""#5b7c65"",""#706081""]","25","false","[0.342,0.299,0.368,0.724]","2","0",""
"","","","","","two-step-trial","53","431832","0.0-30.0-0.0","","","","","","","","","[0,1]","1","1","776","1","[1920,1080]","1","[0,1]","0","0","627","1","0","[""#a75248"",""#486ea7""]","[""#5b7c65"",""#706081""]","26","false","[0.362,0.294,0.373,0.738]","2","0",""
"","","","","","two-step-trial","54","440560","0.0-31.0-0.0","","","","","","","","","[0,1]","1","1","5620","0","[1920,1080]","1","[0,1]","0","0","1086","1","0","[""#a75248"",""#486ea7""]","[""#5b7c65"",""#706081""]","27","false","[0.332,0.286,0.389,0.683]","2","0",""
"","","","","","two-step-trial","55","445454","0.0-32.0-0.0","","","","","","","","","[0,1]","0","0","2081","0","[1920,1080]","1","[0,1]","0","0","782","1","0","[""#a75248"",""#486ea7""]","[""#5b7c65"",""#706081""]","28","false","[0.34,0.303,0.383,0.689]","2","0",""
"","","","","","two-step-trial","56","450327","0.0-33.0-0.0","","","","","","","","","[0,1]","1","1","2288","0","[1920,1080]","1","[0,1]","1","1","559","0","0","[""#a75248"",""#486ea7""]","[""#5b7c65"",""#706081""]","29","false","[0.317,0.302,0.385,0.679]","2","0",""
"","","","","","two-step-trial","57","457835","0.0-34.0-0.0","","","","","","","","","[2,3]","1","3","4074","1","[1920,1080]","1","[0,1]","1","1","1408","1","1","[""#a75248"",""#486ea7""]","[""#5b7c65"",""#706081""]","30","false","[0.353,0.346,0.414,0.681]","2","0",""
"","","","","","two-step-trial","58","463634","0.0-35.0-0.0","","","","","","","","","[0,1]","0","0","3140","0","[1920,1080]","1","[0,1]","1","1","651","0","0","[""#a75248"",""#486ea7""]","[""#5b7c65"",""#706081""]","31","false","[0.325,0.331,0.414,0.647]","2","0",""
"","","","","","two-step-trial","59","467639","0.0-36.0-0.0","","","","","","","","","[2,3]","1","3","1239","1","[1920,1080]","1","[0,1]","1","1","748","1","1","[""#a75248"",""#486ea7""]","[""#5b7c65"",""#706081""]","32","false","[0.328,0.33,0.383,0.663]","2","0",""
"","","","","","two-step-trial","60","472114","0.0-37.0-0.0","","","","","","","","","[2,3]","1","3","1425","0","[1920,1080]","1","[0,1]","1","1","1040","1","1","[""#a75248"",""#486ea7""]","[""#5b7c65"",""#706081""]","33","false","[0.322,0.332,0.362,0.633]","2","0",""
"","","","","","two-step-trial","61","476426","0.0-38.0-0.0","","","","","","","","","[2,3]","1","3","1548","0","[1920,1080]","1","[0,1]","1","1","748","1","1","[""#a75248"",""#486ea7""]","[""#5b7c65"",""#706081""]","34","false","[0.322,0.307,0.363,0.617]","2","0",""
"","","","","","two-step-trial","62","480020","0.0-39.0-0.0","","","","","","","","","[2,3]","0","2","738","0","[1920,1080]","1","[0,1]","1","1","843","1","1","[""#a75248"",""#486ea7""]","[""#5b7c65"",""#706081""]","35","false","[0.297,0.336,0.333,0.65]","2","0",""
"","","","","","two-step-trial","63","484600","0.0-40.0-0.0","","","","","","","","","[2,3]","1","3","2065","1","[1920,1080]","1","[0,1]","0","0","497","0","1","[""#a75248"",""#486ea7""]","[""#5b7c65"",""#706081""]","36","false","[0.326,0.343,0.331,0.633]","2","0",""
"","","","","","two-step-trial","64","490057","0.0-41.0-0.0","","","","","","","","","[2,3]","1","3","1145","1","[1920,1080]","1","[0,1]","1","1","2296","1","1","[""#a75248"",""#486ea7""]","[""#5b7c65"",""#706081""]","37","false","[0.318,0.324,0.327,0.612]","2","0",""
"","","","","","two-step-trial","65","494941","0.0-42.0-0.0","","","","","","","","","[0,1]","1","1","1212","0","[1920,1080]","1","[0,1]","0","0","1653","1","0","[""#a75248"",""#486ea7""]","[""#5b7c65"",""#706081""]","38","false","[0.304,0.324,0.319,0.591]","2","0",""
"","","","","","two-step-trial","66","498215","0.0-43.0-0.0","","","","","","","","","[0,1]","0","0","767","1","[1920,1080]","1","[0,1]","0","0","489","1","0","[""#a75248"",""#486ea7""]","[""#5b7c65"",""#706081""]","39","false","[0.283,0.362,0.351,0.561]","2","0",""
"","","","","","two-step-trial","67","502462","0.0-44.0-0.0","","","","","","","","","[0,1]","0","0","1153","1","[1920,1080]","1","[0,1]","0","0","1064","1","0","[""#a75248"",""#486ea7""]","[""#5b7c65"",""#706081""]","40","false","[0.295,0.387,0.331,0.546]","2","0",""
"","","","","","two-step-trial","68","506647","0.0-45.0-0.0","","","","","","","","","[2,3]","1","3","1323","1","[1920,1080]","1","[0,1]","0","0","841","0","1","[""#a75248"",""#486ea7""]","[""#5b7c65"",""#706081""]","41","false","[0.293,0.385,0.33,0.584]","2","0",""
"","","","","","two-step-trial","69","514773","0.0-46.0-0.0","","","","","","","","","[0,1]","0","0","1318","1","[1920,1080]","1","[0,1]","0","0","4791","1","0","[""#a75248"",""#486ea7""]","[""#5b7c65"",""#706081""]","42","false","[0.304,0.383,0.318,0.562]","2","0",""
"","","","","","two-step-trial","70","520693","0.0-47.0-0.0","","","","","","","","","[0,1]","0","0","2882","0","[1920,1080]","1","[0,1]","0","0","1018","1","0","[""#a75248"",""#486ea7""]","[""#5b7c65"",""#706081""]","43","false","[0.318,0.398,0.315,0.576]","2","0",""
"","","","","","two-step-trial","71","524467","0.0-48.0-0.0","","","","","","","","","[2,3]","1","3","1253","1","[1920,1080]","1","[0,1]","0","0","506","0","1","[""#a75248"",""#486ea7""]","[""#5b7c65"",""#706081""]","44","false","[0.321,0.371,0.348,0.616]","2","0",""
"","","","","","two-step-trial","72","529116","0.0-49.0-0.0","","","","","","","","","[0,1]","0","0","1239","1","[1920,1080]","1","[0,1]","0","0","1395","1","0","[""#a75248"",""#486ea7""]","[""#5b7c65"",""#706081""]","45","false","[0.319,0.418,0.367,0.598]","2","0",""
"","","","","","two-step-trial","73","533195","0.0-50.0-0.0","","","","","","","","","[0,1]","0","0","1247","0","[1920,1080]","1","[0,1]","0","0","811","1","0","[""#a75248"",""#486ea7""]","[""#5b7c65"",""#706081""]","46","false","[0.326,0.44,0.366,0.588]","2","0",""
"","","","","","two-step-trial","74","537069","0.0-51.0-0.0","","","","","","","","","[0,1]","0","0","1334","1","[1920,1080]","1","[0,1]","0","0","532","1","0","[""#a75248"",""#486ea7""]","[""#5b7c65"",""#706081""]","47","false","[0.315,0.46,0.378,0.597]","2","0",""
"","","","","","two-step-trial","75","540967","0.0-52.0-0.0","","","","","","","","","[2,3]","1","3","1163","0","[1920,1080]","1","[0,1]","0","0","712","0","1","[""#a75248"",""#486ea7""]","[""#5b7c65"",""#706081""]","48","false","[0.281,0.476,0.36,0.571]","2","0",""
"","","","","","two-step-trial","76","545758","0.0-53.0-0.0","","","","","","","","","[0,1]","1","1","1873","1","[1920,1080]","1","[0,1]","0","0","896","1","0","[""#a75248"",""#486ea7""]","[""#5b7c65"",""#706081""]","49","false","[0.254,0.439,0.383,0.579]","2","0",""
"","","","","","two-step-trial","77","549180","0.0-54.0-0.0","","","","","","","","","[0,1]","1","1","789","1","[1920,1080]","1","[0,1]","0","0","618","1","0","[""#a75248"",""#486ea7""]","[""#5b7c65"",""#706081""]","50","false","[0.303,0.471,0.392,0.592]","2","0",""
"","","","","","two-step-trial","78","552555","0.0-55.0-0.0","","","","","","","","","[0,1]","0","0","761","0","[1920,1080]","1","[0,1]","0","0","603","1","0","[""#a75248"",""#486ea7""]","[""#5b7c65"",""#706081""]","51","false","[0.274,0.41,0.377,0.587]","2","0",""
"","","","","","two-step-trial","79","555824","0.0-56.0-0.0","","","","","","","","","[0,1]","0","0","697","1","[1920,1080]","1","[0,1]","0","0","547","1","0","[""#a75248"",""#486ea7""]","[""#5b7c65"",""#706081""]","52","false","[0.29,0.413,0.363,0.572]","2","0",""
"","","","","","two-step-trial","80","559738","0.0-57.0-0.0","","","","","","","","","[0,1]","0","0","1191","1","[1920,1080]","1","[0,1]","0","0","711","1","0","[""#a75248"",""#486ea7""]","[""#5b7c65"",""#706081""]","53","false","[0.292,0.425,0.318,0.522]","2","0",""
"","","","","","two-step-trial","81","563173","0.0-58.0-0.0","","","","","","","","","[0,1]","0","0","702","1","[1920,1080]","1","[0,1]","0","0","716","1","0","[""#a75248"",""#486ea7""]","[""#5b7c65"",""#706081""]","54","false","[0.284,0.449,0.332,0.552]","2","0",""
"","","","","","two-step-trial","82","566739","0.0-59.0-0.0","","","","","","","","","[0,1]","0","0","704","0","[1920,1080]","1","[0,1]","0","0","842","1","0","[""#a75248"",""#486ea7""]","[""#5b7c65"",""#706081""]","55","false","[0.253,0.41,0.344,0.579]","2","0",""
"","","","","","two-step-trial","83","570836","0.0-60.0-0.0","","","","","","","","","[0,1]","1","1","1481","1","[1920,1080]","1","[0,1]","0","0","604","1","0","[""#a75248"",""#486ea7""]","[""#5b7c65"",""#706081""]","56","false","[0.277,0.408,0.373,0.526]","2","0",""
"","","","","","two-step-trial","84","574205","0.0-61.0-0.0","","","","","","","","","[0,1]","1","1","638","1","[1920,1080]","1","[0,1]","0","0","723","1","0","[""#a75248"",""#486ea7""]","[""#5b7c65"",""#706081""]","57","false","[0.252,0.418,0.356,0.521]","2","0",""
"","","","","","two-step-trial","85","577581","0.0-62.0-0.0","","","","","","","","","[0,1]","1","1","707","0","[1920,1080]","1","[0,1]","0","0","658","1","0","[""#a75248"",""#486ea7""]","[""#5b7c65"",""#706081""]","58","false","[0.282,0.462,0.395,0.504]","2","0",""
"","","","","","two-step-trial","86","580811","0.0-63.0-0.0","","","","","","","","","[0,1]","0","0","570","0","[1920,1080]","1","[0,1]","0","0","642","1","0","[""#a75248"",""#486ea7""]","[""#5b7c65"",""#706081""]","59","false","[0.297,0.475,0.39,0.498]","2","0",""
"","","","","","two-step-trial","87","583785","0.0-64.0-0.0","","","","","","","","","[0,1]","0","0","543","1","[1920,1080]","1","[0,1]","0","0","428","1","0","[""#a75248"",""#486ea7""]","[""#5b7c65"",""#706081""]","60","false","[0.295,0.463,0.364,0.52]","2","0",""
"","","","","","two-step-trial","88","586822","0.0-65.0-0.0","","","","","","","","","[0,1]","0","0","535","0","[1920,1080]","1","[0,1]","0","0","486","1","0","[""#a75248"",""#486ea7""]","[""#5b7c65"",""#706081""]","61","false","[0.295,0.433,0.355,0.543]","2","0",""
"","","","","","two-step-trial","89","592004","0.0-66.0-0.0","","","","","","","","","[0,1]","1","1","2660","1","[1920,1080]","1","[0,1]","1","1","505","0","0","[""#a75248"",""#486ea7""]","[""#5b7c65"",""#706081""]","62","false","[0.307,0.43,0.353,0.543]","2","0",""
"","","","","","two-step-trial","90","595592","0.0-67.0-0.0","","","","","","","","","[2,3]","1","3","928","0","[1920,1080]","1","[0,1]","1","1","643","1","1","[""#a75248"",""#486ea7""]","[""#5b7c65"",""#706081""]","63","false","[0.353,0.426,0.367,0.529]","2","0",""
"","","","","","two-step-trial","91","598929","0.0-68.0-0.0","","","","","","","","","[2,3]","1","3","852","1","[1920,1080]","1","[0,1]","1","1","479","1","1","[""#a75248"",""#486ea7""]","[""#5b7c65"",""#706081""]","64","false","[0.37,0.432,0.33,0.47]","2","0",""
"","","","","","two-step-trial","92","602172","0.0-69.0-0.0","","","","","","","","","[2,3]","1","3","666","0","[1920,1080]","1","[0,1]","1","1","550","1","1","[""#a75248"",""#486ea7""]","[""#5b7c65"",""#706081""]","65","false","[0.377,0.393,0.348,0.501]","2","0",""
"","","","","","two-step-trial","93","605083","0.0-70.0-0.0","","","","","","","","","[2,3]","1","3","476","0","[1920,1080]","1","[0,1]","1","1","428","1","1","[""#a75248"",""#486ea7""]","[""#5b7c65"",""#706081""]","66","false","[0.345,0.371,0.258,0.459]","2","0",""
"","","","","","two-step-trial","94","608545","0.0-71.0-0.0","","","","","","","","","[0,1]","1","1","961","0","[1920,1080]","1","[0,1]","1","1","491","0","0","[""#a75248"",""#486ea7""]","[""#5b7c65"",""#706081""]","67","false","[0.332,0.355,0.256,0.426]","2","0",""
"","","","","","two-step-trial","95","612371","0.0-72.0-0.0","","","","","","","","","[2,3]","1","3","1342","0","[1920,1080]","1","[0,1]","1","1","469","1","1","[""#a75248"",""#486ea7""]","[""#5b7c65"",""#706081""]","68","false","[0.331,0.398,0.311,0.426]","2","0",""
"","","","","","two-step-trial","96","615963","0.0-73.0-0.0","","","","","","","","","[0,1]","1","1","1017","0","[1920,1080]","1","[0,1]","1","1","555","0","0","[""#a75248"",""#486ea7""]","[""#5b7c65"",""#706081""]","69","false","[0.325,0.426,0.326,0.384]","2","0",""
"","","","","","two-step-trial","97","619136","0.0-74.0-0.0","","","","","","","","","[0,1]","0","0","517","1","[1920,1080]","1","[0,1]","1","1","644","0","0","[""#a75248"",""#486ea7""]","[""#5b7c65"",""#706081""]","70","false","[0.293,0.475,0.305,0.375]","2","0",""
"","","","","","two-step-trial","98","624076","0.0-75.0-0.0","","","","","","","","","[2,3]","1","3","1438","0","[1920,1080]","1","[0,1]","1","1","1487","1","1","[""#a75248"",""#486ea7""]","[""#5b7c65"",""#706081""]","71","false","[0.268,0.51,0.303,0.365]","2","0",""
"","","","","","two-step-trial","99","627616","0.0-76.0-0.0","","","","","","","","","[2,3]","0","2","731","1","[1920,1080]","1","[0,1]","1","1","794","1","1","[""#a75248"",""#486ea7""]","[""#5b7c65"",""#706081""]","72","false","[0.294,0.507,0.326,0.359]","2","0",""
"","","","","","two-step-trial","100","631072","0.0-77.0-0.0","","","","","","","","","[2,3]","0","2","882","0","[1920,1080]","1","[0,1]","1","1","550","1","1","[""#a75248"",""#486ea7""]","[""#5b7c65"",""#706081""]","73","false","[0.296,0.541,0.313,0.367]","2","0",""
"","","","","","two-step-trial","101","634945","0.0-78.0-0.0","","","","","","","","","[0,1]","1","1","835","1","[1920,1080]","1","[0,1]","0","0","1022","1","0","[""#a75248"",""#486ea7""]","[""#5b7c65"",""#706081""]","74","false","[0.282,0.491,0.339,0.374]","2","0",""
"","","","","","two-step-trial","102","639339","0.0-79.0-0.0","","","","","","","","","[2,3]","1","3","1723","0","[1920,1080]","1","[0,1]","0","0","646","0","1","[""#a75248"",""#486ea7""]","[""#5b7c65"",""#706081""]","75","false","[0.336,0.513,0.333,0.367]","2","0",""
"","","","","","two-step-instructions","103","722450","0.0-80.0","83109","","","[{""page_index"":0,""viewing_time"":81181},{""page_index"":1,""viewing_time"":1928}]","","","","","","","","","","","","","","","","","","","","","","","","",""
"","","","","","two-step-trial","104","729435","0.0-81.0-0.0","","","","","","","","","[0,1]","1","1","2582","1","[1920,1080]","1","[0,1]","0","0","2390","1","0","[""#a75248"",""#486ea7""]","[""#5b7c65"",""#706081""]","76","false","[0.344,0.538,0.274,0.339]","2","0",""
"","","","","","two-step-trial","105","733348","0.0-82.0-0.0","","","","","","","","","[2,3]","1","3","1233","1","[1920,1080]","1","[0,1]","0","0","661","0","1","[""#a75248"",""#486ea7""]","[""#5b7c65"",""#706081""]","77","false","[0.322,0.54,0.262,0.343]","2","0",""
"","","","","","two-step-trial","106","736816","0.0-83.0-0.0","","","","","","","","","[0,1]","1","1","806","1","[1920,1080]","1","[0,1]","0","0","650","1","0","[""#a75248"",""#486ea7""]","[""#5b7c65"",""#706081""]","78","false","[0.351,0.561,0.265,0.342]","2","0",""
"","","","","","two-step-trial","107","740173","0.0-84.0-0.0","","","","","","","","","[0,1]","1","1","748","0","[1920,1080]","1","[0,1]","0","0","589","1","0","[""#a75248"",""#486ea7""]","[""#5b7c65"",""#706081""]","79","false","[0.335,0.543,0.286,0.35]","2","0",""
"","","","","","two-step-trial","108","743575","0.0-85.0-0.0","","","","","","","","","[0,1]","0","0","721","0","[1920,1080]","1","[0,1]","0","0","657","1","0","[""#a75248"",""#486ea7""]","[""#5b7c65"",""#706081""]","80","false","[0.328,0.536,0.289,0.405]","2","0",""
"","","","","","two-step-trial","109","747130","0.0-86.0-0.0","","","","","","","","","[2,3]","1","3","1034","0","[1920,1080]","1","[0,1]","0","0","496","0","1","[""#a75248"",""#486ea7""]","[""#5b7c65"",""#706081""]","81","false","[0.286,0.534,0.265,0.391]","2","0",""
"","","","","","two-step-trial","110","751495","0.0-87.0-0.0","","","","","","","","","[0,1]","1","1","1833","0","[1920,1080]","1","[0,1]","0","0","517","1","0","[""#a75248"",""#486ea7""]","[""#5b7c65"",""#706081""]","82","false","[0.307,0.553,0.256,0.373]","2","0",""
"","","","","","two-step-trial","111","754674","0.0-88.0-0.0","","","","","","","","","[2,3]","1","3","641","1","[1920,1080]","1","[0,1]","1","1","520","1","1","[""#a75248"",""#486ea7""]","[""#5b7c65"",""#706081""]","83","false","[0.306,0.564,0.273,0.38]","2","0",""
"","","","","","two-step-trial","112","758618","0.0-89.0-0.0","","","","","","","","","[0,1]","1","1","1113","1","[1920,1080]","1","[0,1]","1","1","805","0","0","[""#a75248"",""#486ea7""]","[""#5b7c65"",""#706081""]","84","false","[0.263,0.564,0.275,0.397]","2","0",""
"","","","","","two-step-trial","113","762035","0.0-90.0-0.0","","","","","","","","","[2,3]","1","3","835","1","[1920,1080]","1","[0,1]","1","1","565","1","1","[""#a75248"",""#486ea7""]","[""#5b7c65"",""#706081""]","85","false","[0.295,0.592,0.3,0.406]","2","0",""
"","","","","","two-step-trial","114","766047","0.0-91.0-0.0","","","","","","","","","[0,1]","0","0","1466","0","[1920,1080]","1","[0,1]","1","1","524","0","0","[""#a75248"",""#486ea7""]","[""#5b7c65"",""#706081""]","86","false","[0.266,0.571,0.324,0.417]","2","0",""
"","","","","","two-step-trial","115","769369","0.0-92.0-0.0","","","","","","","","","[2,3]","1","3","688","1","[1920,1080]","1","[0,1]","1","1","616","1","1","[""#a75248"",""#486ea7""]","[""#5b7c65"",""#706081""]","87","false","[0.25,0.532,0.345,0.39]","2","0",""
"","","","","","two-step-trial","116","772479","0.0-93.0-0.0","","","","","","","","","[2,3]","1","3","593","0","[1920,1080]","1","[0,1]","1","1","484","1","1","[""#a75248"",""#486ea7""]","[""#5b7c65"",""#706081""]","88","false","[0.258,0.529,0.341,0.378]","2","0",""
"","","","","","two-step-trial","117","776567","0.0-94.0-0.0","","","","","","","","","[2,3]","0","2","1394","1","[1920,1080]","1","[0,1]","1","1","672","1","1","[""#a75248"",""#486ea7""]","[""#5b7c65"",""#706081""]","89","false","[0.266,0.533,0.306,0.41]","2","0",""
"","","","","","two-step-trial","118","779750","0.0-95.0-0.0","","","","","","","","","[2,3]","0","2","721","0","[1920,1080]","1","[0,1]","1","1","448","1","1","[""#a75248"",""#486ea7""]","[""#5b7c65"",""#706081""]","90","false","[0.254,0.554,0.297,0.382]","2","0",""
"","","","","","two-step-trial","119","783051","0.0-96.0-0.0","","","","","","","","","[0,1]","1","1","670","1","[1920,1080]","1","[0,1]","1","1","617","0","0","[""#a75248"",""#486ea7""]","[""#5b7c65"",""#706081""]","91","false","[0.265,0.543,0.313,0.38]","2","0",""
"","","","","","two-step-trial","120","786439","0.0-97.0-0.0","","","","","","","","","[2,3]","1","3","798","1","[1920,1080]","1","[0,1]","1","1","573","1","1","[""#a75248"",""#486ea7""]","[""#5b7c65"",""#706081""]","92","false","[0.259,0.54,0.279,0.363]","2","0",""
"","","","","","two-step-trial","121","789727","0.0-98.0-0.0","","","","","","","","","[2,3]","1","3","677","0","[1920,1080]","1","[0,1]","1","1","599","1","1","[""#a75248"",""#486ea7""]","[""#5b7c65"",""#706081""]","93","false","[0.251,0.565,0.296,0.35]","2","0",""
"","","","","","two-step-trial","122","792946","0.0-99.0-0.0","","","","","","","","","[2,3]","1","3","719","1","[1920,1080]","1","[0,1]","1","1","478","1","1","[""#a75248"",""#486ea7""]","[""#5b7c65"",""#706081""]","94","false","[0.276,0.543,0.275,0.322]","2","0",""
"","","","","","two-step-trial","123","796568","0.0-100.0-0.0","","","","","","","","","[0,1]","1","1","1142","0","[1920,1080]","1","[0,1]","1","1","460","0","0","[""#a75248"",""#486ea7""]","[""#5b7c65"",""#706081""]","95","false","[0.317,0.539,0.285,0.291]","2","0",""
"","","","","","two-step-trial","124","799802","0.0-101.0-0.0","","","","","","","","","[2,3]","1","3","774","1","[1920,1080]","1","[0,1]","1","1","447","1","1","[""#a75248"",""#486ea7""]","[""#5b7c65"",""#706081""]","96","false","[0.325,0.583,0.251,0.276]","2","0",""
"","","","","","two-step-trial","125","803603","0.0-102.0-0.0","","","","","","","","","[0,1]","0","0","1349","1","[1920,1080]","1","[0,1]","1","1","436","0","0","[""#a75248"",""#486ea7""]","[""#5b7c65"",""#706081""]","97","false","[0.352,0.597,0.278,0.336]","2","0",""
"","","","","","two-step-trial","126","807519","0.0-103.0-0.0","","","","","","","","","[2,3]","1","3","1045","0","[1920,1080]","1","[0,1]","1","1","851","1","1","[""#a75248"",""#486ea7""]","[""#5b7c65"",""#706081""]","98","false","[0.369,0.601,0.316,0.324]","2","0",""
"","","","","","two-step-trial","127","810893","0.0-104.0-0.0","","","","","","","","","[2,3]","0","2","891","0","[1920,1080]","1","[0,1]","1","1","455","1","1","[""#a75248"",""#486ea7""]","[""#5b7c65"",""#706081""]","99","false","[0.338,0.574,0.29,0.307]","2","0",""
"","","","","","two-step-trial","128","813897","0.0-105.0-0.0","","","","","","","","","[2,3]","1","3","503","0","[1920,1080]","1","[0,1]","1","1","490","1","1","[""#a75248"",""#486ea7""]","[""#5b7c65"",""#706081""]","100","false","[0.348,0.567,0.294,0.264]","2","0",""
"","","","","","two-step-trial","129","817416","0.0-106.0-0.0","","","","","","","","","[0,1]","0","0","971","0","[1920,1080]","1","[0,1]","0","0","534","1","0","[""#a75248"",""#486ea7""]","[""#5b7c65"",""#706081""]","101","false","[0.332,0.536,0.335,0.261]","2","0",""
"","","","","","two-step-trial","130","820695","0.0-107.0-0.0","","","","","","","","","[0,1]","1","1","588","0","[1920,1080]","1","[0,1]","0","0","670","1","0","[""#a75248"",""#486ea7""]","[""#5b7c65"",""#706081""]","102","false","[0.331,0.521,0.359,0.268]","2","0",""
"","","","","","two-step-trial","131","823541","0.0-108.0-0.0","","","","","","","","","[0,1]","0","0","599","0","[1920,1080]","1","[0,1]","0","0","232","1","0","[""#a75248"",""#486ea7""]","[""#5b7c65"",""#706081""]","103","false","[0.317,0.518,0.371,0.309]","2","0",""
"","","","","","two-step-trial","132","827390","0.0-109.0-0.0","","","","","","","","","[2,3]","1","3","1405","0","[1920,1080]","1","[0,1]","1","1","417","1","1","[""#a75248"",""#486ea7""]","[""#5b7c65"",""#706081""]","104","false","[0.334,0.493,0.341,0.296]","2","0",""
"","","","","","two-step-trial","133","830459","0.0-110.0-0.0","","","","","","","","","[2,3]","1","3","681","0","[1920,1080]","1","[0,1]","1","1","369","1","1","[""#a75248"",""#486ea7""]","[""#5b7c65"",""#706081""]","105","false","[0.349,0.494,0.34,0.27]","2","0",""
"","","","","","two-step-trial","134","833530","0.0-111.0-0.0","","","","","","","","","[2,3]","0","2","635","0","[1920,1080]","1","[0,1]","1","1","412","1","1","[""#a75248"",""#486ea7""]","[""#5b7c65"",""#706081""]","106","false","[0.302,0.497,0.307,0.282]","2","0",""
"","","","","","two-step-trial","135","837278","0.0-112.0-0.0","","","","","","","","","[2,3]","0","2","1098","0","[1920,1080]","1","[0,1]","1","1","637","1","1","[""#a75248"",""#486ea7""]","[""#5b7c65"",""#706081""]","107","false","[0.336,0.523,0.294,0.315]","2","0",""
"","","","","","two-step-trial","136","840222","0.0-113.0-0.0","","","","","","","","","[2,3]","1","3","502","0","[1920,1080]","1","[0,1]","1","1","426","1","1","[""#a75248"",""#486ea7""]","[""#5b7c65"",""#706081""]","108","false","[0.381,0.482,0.317,0.324]","2","0",""
"","","","","","two-step-trial","137","843876","0.0-114.0-0.0","","","","","","","","","[0,1]","0","0","1139","1","[1920,1080]","1","[0,1]","0","0","498","1","0","[""#a75248"",""#486ea7""]","[""#5b7c65"",""#706081""]","109","false","[0.342,0.505,0.32,0.33]","2","0",""
"","","","","","two-step-trial","138","847414","0.0-115.0-0.0","","","","","","","","","[0,1]","0","0","860","0","[1920,1080]","1","[0,1]","0","0","650","1","0","[""#a75248"",""#486ea7""]","[""#5b7c65"",""#706081""]","110","false","[0.337,0.526,0.318,0.349]","2","0",""
"","","","","","two-step-trial","139","850748","0.0-116.0-0.0","","","","","","","","","[0,1]","1","1","831","1","[1920,1080]","1","[0,1]","0","0","489","1","0","[""#a75248"",""#486ea7""]","[""#5b7c65"",""#706081""]","111","false","[0.374,0.551,0.269,0.35]","2","0",""
"","","","","","two-step-trial","140","855078","0.0-117.0-0.0","","","","","","","","","[2,3]","0","2","1556","0","[1920,1080]","1","[0,1]","0","0","747","0","1","[""#a75248"",""#486ea7""]","[""#5b7c65"",""#706081""]","112","false","[0.355,0.517,0.255,0.331]","2","0",""
"","","","","","two-step-trial","141","858320","0.0-118.0-0.0","","","","","","","","","[2,3]","1","3","804","0","[1920,1080]","1","[0,1]","0","0","424","0","1","[""#a75248"",""#486ea7""]","[""#5b7c65"",""#706081""]","113","false","[0.331,0.507,0.283,0.271]","2","0",""
"","","","","","two-step-trial","142","861403","0.0-119.0-0.0","","","","","","","","","[2,3]","0","2","946","0","[1920,1080]","1","[0,1]","0","0","119","0","1","[""#a75248"",""#486ea7""]","[""#5b7c65"",""#706081""]","114","false","[0.326,0.467,0.284,0.267]","2","0",""
"","","","","","two-step-trial","143","864956","0.0-120.0-0.0","","","","","","","","","[0,1]","0","0","1067","0","[1920,1080]","1","[0,1]","0","0","461","1","0","[""#a75248"",""#486ea7""]","[""#5b7c65"",""#706081""]","115","false","[0.313,0.494,0.291,0.251]","2","0",""
"","","","","","two-step-trial","144","868281","0.0-121.0-0.0","","","","","","","","","[0,1]","1","1","829","1","[1920,1080]","1","[0,1]","0","0","483","1","0","[""#a75248"",""#486ea7""]","[""#5b7c65"",""#706081""]","116","false","[0.319,0.494,0.296,0.273]","2","0",""
"","","","","","two-step-trial","145","871724","0.0-122.0-0.0","","","","","","","","","[0,1]","1","1","836","0","[1920,1080]","1","[0,1]","0","0","598","1","0","[""#a75248"",""#486ea7""]","[""#5b7c65"",""#706081""]","117","false","[0.297,0.492,0.312,0.277]","2","0",""
"","","","","","two-step-trial","146","875574","0.0-123.0-0.0","","","","","","","","","[0,1]","1","1","1001","1","[1920,1080]","1","[0,1]","1","1","836","0","0","[""#a75248"",""#486ea7""]","[""#5b7c65"",""#706081""]","118","false","[0.288,0.513,0.36,0.275]","2","0",""
"","","","","","two-step-trial","147","878940","0.0-124.0-0.0","","","","","","","","","[2,3]","1","3","966","0","[1920,1080]","1","[0,1]","1","1","385","1","1","[""#a75248"",""#486ea7""]","[""#5b7c65"",""#706081""]","119","false","[0.304,0.552,0.392,0.266]","2","0",""
"","","","","","two-step-trial","148","882132","0.0-125.0-0.0","","","","","","","","","[2,3]","0","2","749","1","[1920,1080]","1","[0,1]","1","1","427","1","1","[""#a75248"",""#486ea7""]","[""#5b7c65"",""#706081""]","120","false","[0.295,0.538,0.367,0.253]","2","0",""
"","","","","","two-step-trial","149","885717","0.0-126.0-0.0","","","","","","","","","[2,3]","0","2","856","0","[1920,1080]","1","[0,1]","1","1","716","1","1","[""#a75248"",""#486ea7""]","[""#5b7c65"",""#706081""]","121","false","[0.268,0.49,0.389,0.267]","2","0",""
"","","","","","two-step-trial","150","888732","0.0-127.0-0.0","","","","","","","","","[2,3]","1","3","545","1","[1920,1080]","1","[0,1]","1","1","450","1","1","[""#a75248"",""#486ea7""]","[""#5b7c65"",""#706081""]","122","false","[0.292,0.548,0.366,0.262]","2","0",""
"","","","","","two-step-trial","151","892589","0.0-128.0-0.0","","","","","","","","","[0,1]","1","1","906","1","[1920,1080]","1","[0,1]","1","1","923","0","0","[""#a75248"",""#486ea7""]","[""#5b7c65"",""#706081""]","123","false","[0.287,0.579,0.38,0.276]","2","0",""
"","","","","","two-step-trial","152","896053","0.0-129.0-0.0","","","","","","","","","[0,1]","1","1","958","0","[1920,1080]","1","[0,1]","1","1","491","0","0","[""#a75248"",""#486ea7""]","[""#5b7c65"",""#706081""]","124","false","[0.296,0.64,0.405,0.262]","2","0",""
"","","","","","two-step-trial","153","900198","0.0-130.0-0.0","","","","","","","","","[2,3]","0","2","1673","1","[1920,1080]","1","[0,1]","1","1","458","1","1","[""#a75248"",""#486ea7""]","[""#5b7c65"",""#706081""]","125","false","[0.25,0.637,0.448,0.25]","2","0",""
"","","","","","two-step-trial","154","903885","0.0-131.0-0.0","","","","","","","","","[2,3]","0","2","996","0","[1920,1080]","1","[0,1]","1","1","665","1","1","[""#a75248"",""#486ea7""]","[""#5b7c65"",""#706081""]","126","false","[0.255,0.666,0.447,0.257]","2","0",""
"","","","","","two-step-trial","155","906871","0.0-132.0-0.0","","","","","","","","","[0,1]","1","1","691","1","[1920,1080]","1","[0,1]","1","1","281","0","0","[""#a75248"",""#486ea7""]","[""#5b7c65"",""#706081""]","127","false","[0.281,0.695,0.433,0.272]","2","0",""
"","","","","","two-step-trial","156","910138","0.0-133.0-0.0","","","","","","","","","[0,1]","0","0","821","0","[1920,1080]","1","[0,1]","1","1","432","0","0","[""#a75248"",""#486ea7""]","[""#5b7c65"",""#706081""]","128","false","[0.277,0.667,0.42,0.278]","2","0",""
"","","","","","two-step-trial","157","914115","0.0-134.0-0.0","","","","","","","","","[2,3]","0","2","1158","1","[1920,1080]","1","[0,1]","1","1","790","1","1","[""#a75248"",""#486ea7""]","[""#5b7c65"",""#706081""]","129","false","[0.318,0.661,0.46,0.294]","2","0",""
"","","","","","two-step-trial","158","917463","0.0-135.0-0.0","","","","","","","","","[2,3]","1","3","742","1","[1920,1080]","1","[0,1]","1","1","596","1","1","[""#a75248"",""#486ea7""]","[""#5b7c65"",""#706081""]","130","false","[0.306,0.677,0.461,0.259]","2","0",""
"","","","","","two-step-trial","159","920847","0.0-136.0-0.0","","","","","","","","","[2,3]","0","2","803","0","[1920,1080]","1","[0,1]","1","1","560","1","1","[""#a75248"",""#486ea7""]","[""#5b7c65"",""#706081""]","131","false","[0.35,0.655,0.474,0.278]","2","0",""
"","","","","","two-step-trial","160","924099","0.0-137.0-0.0","","","","","","","","","[0,1]","1","1","803","1","[1920,1080]","1","[0,1]","1","1","440","0","0","[""#a75248"",""#486ea7""]","[""#5b7c65"",""#706081""]","132","false","[0.352,0.663,0.445,0.297]","2","0",""
"","","","","","two-step-trial","161","928527","0.0-138.0-0.0","","","","","","","","","[2,3]","1","3","1896","0","[1920,1080]","1","[0,1]","1","1","508","1","1","[""#a75248"",""#486ea7""]","[""#5b7c65"",""#706081""]","133","false","[0.374,0.662,0.412,0.314]","2","0",""
"","","","","","two-step-trial","162","931670","0.0-139.0-0.0","","","","","","","","","[2,3]","1","3","711","0","[1920,1080]","1","[0,1]","1","1","423","1","1","[""#a75248"",""#486ea7""]","[""#5b7c65"",""#706081""]","134","false","[0.405,0.666,0.424,0.315]","2","0",""
"","","","","","two-step-trial","163","934778","0.0-140.0-0.0","","","","","","","","","[2,3]","0","2","653","1","[1920,1080]","1","[0,1]","1","1","450","1","1","[""#a75248"",""#486ea7""]","[""#5b7c65"",""#706081""]","135","false","[0.43,0.696,0.452,0.345]","2","0",""
"","","","","","two-step-trial","164","938449","0.0-141.0-0.0","","","","","","","","","[2,3]","0","2","825","0","[1920,1080]","1","[0,1]","1","1","837","1","1","[""#a75248"",""#486ea7""]","[""#5b7c65"",""#706081""]","136","false","[0.426,0.681,0.444,0.337]","2","0",""
"","","","","","two-step-trial","165","942395","0.0-142.0-0.0","","","","","","","","","[0,1]","1","1","1547","1","[1920,1080]","1","[0,1]","0","0","390","1","0","[""#a75248"",""#486ea7""]","[""#5b7c65"",""#706081""]","137","false","[0.411,0.674,0.45,0.299]","2","0",""
"","","","","","two-step-trial","166","946534","0.0-143.0-0.0","","","","","","","","","[2,3]","1","3","1497","0","[1920,1080]","1","[0,1]","0","0","621","0","1","[""#a75248"",""#486ea7""]","[""#5b7c65"",""#706081""]","138","false","[0.414,0.699,0.459,0.339]","2","0",""
"","","","","","two-step-trial","167","950142","0.0-144.0-0.0","","","","","","","","","[0,1]","0","0","656","1","[1920,1080]","1","[0,1]","0","0","937","1","0","[""#a75248"",""#486ea7""]","[""#5b7c65"",""#706081""]","139","false","[0.394,0.734,0.462,0.307]","2","0",""
"","","","","","two-step-trial","168","954436","0.0-145.0-0.0","","","","","","","","","[2,3]","0","2","1643","0","[1920,1080]","1","[0,1]","0","0","640","0","1","[""#a75248"",""#486ea7""]","[""#5b7c65"",""#706081""]","140","false","[0.361,0.693,0.467,0.292]","2","0",""
"","","","","","two-step-trial","169","957114","0.0-146.0-0.0","","","","","","","","","[2,3]","0","2","642","1","[1920,1080]","1","[0,1]","0","0","19","0","1","[""#a75248"",""#486ea7""]","[""#5b7c65"",""#706081""]","141","false","[0.354,0.722,0.46,0.26]","2","0",""
"","","","","","two-step-trial","170","961381","0.0-147.0-0.0","","","","","","","","","[0,1]","1","1","827","1","[1920,1080]","1","[0,1]","0","0","1421","1","0","[""#a75248"",""#486ea7""]","[""#5b7c65"",""#706081""]","142","false","[0.353,0.749,0.428,0.301]","2","0",""
"","","","","","two-step-trial","171","965190","0.0-148.0-0.0","","","","","","","","","[2,3]","0","2","1102","1","[1920,1080]","1","[0,1]","0","0","682","0","1","[""#a75248"",""#486ea7""]","[""#5b7c65"",""#706081""]","143","false","[0.361,0.73,0.409,0.316]","2","0",""
"","","","","","two-step-trial","172","970127","0.0-149.0-0.0","","","","","","","","","[2,3]","1","3","2435","0","[1920,1080]","1","[0,1]","0","0","481","0","1","[""#a75248"",""#486ea7""]","[""#5b7c65"",""#706081""]","144","false","[0.295,0.721,0.424,0.316]","2","0",""
"","","","","","two-step-trial","173","973866","0.0-150.0-0.0","","","","","","","","","[2,3]","0","2","692","0","[1920,1080]","1","[0,1]","0","0","1024","0","1","[""#a75248"",""#486ea7""]","[""#5b7c65"",""#706081""]","145","false","[0.287,0.742,0.437,0.287]","2","0",""
"","","","","","two-step-trial","174","976823","0.0-151.0-0.0","","","","","","","","","[2,3]","0","2","519","0","[1920,1080]","1","[0,1]","0","0","430","0","1","[""#a75248"",""#486ea7""]","[""#5b7c65"",""#706081""]","146","false","[0.278,0.742,0.427,0.31]","2","0",""
"","","","","","two-step-trial","175","980388","0.0-152.0-0.0","","","","","","","","","[2,3]","0","2","584","0","[1920,1080]","1","[0,1]","0","0","967","0","1","[""#a75248"",""#486ea7""]","[""#5b7c65"",""#706081""]","147","false","[0.277,0.741,0.475,0.282]","2","0",""
"","","","","","two-step-trial","176","984126","0.0-153.0-0.0","","","","","","","","","[0,1]","1","1","776","1","[1920,1080]","1","[0,1]","1","1","946","0","0","[""#a75248"",""#486ea7""]","[""#5b7c65"",""#706081""]","148","false","[0.264,0.733,0.497,0.268]","2","0",""
"","","","","","two-step-trial","177","988002","0.0-154.0-0.0","","","","","","","","","[2,3]","1","3","1226","0","[1920,1080]","1","[0,1]","1","1","641","1","1","[""#a75248"",""#486ea7""]","[""#5b7c65"",""#706081""]","149","false","[0.258,0.74,0.534,0.264]","2","0",""
"","","","","","two-step-trial","178","990903","0.0-155.0-0.0","","","","","","","","","[2,3]","1","3","800","1","[1920,1080]","1","[0,1]","1","1","85","1","1","[""#a75248"",""#486ea7""]","[""#5b7c65"",""#706081""]","150","false","[0.326,0.735,0.576,0.271]","2","0",""
"","","","","","two-step-instructions","179","999946","0.0-156.0","9042","","","[{""page_index"":0,""viewing_time"":9040}]","","","","","","","","","","","","","","","","","","","","","","","","",""
"","","","","","two-step-comprehension","180","1009426","0.0-157.0","9478","","","","[""red"",""blue""]","0","","","","","","","","","","","","","","","","","","","","","","","[{""event"":""focus"",""trial"":0,""time"":1},{""event"":""fullscreenenter"",""trial"":1,""time"":3865}]"
