"success","timeout","failed_images","failed_audio","failed_video","trial_type","trial_index","time_elapsed","internal_node_id","rt","stimulus","response","view_history","state_1_ids","state_1_key","state_1_choice","state_1_rt","transition","state","state_2_ids","state_2_key","state_2_choice","state_2_rt","outcome","rocket_colors","planet_colors","screen_resolution","minimum_resolution","trial","drifts","drift_ix","browser_interactions","missing","responses","num_errors","interactions"
"true","false","[]","[]","[]","preload","0","204","0.0-0.0","","","","","","","","","","","","","","","","","","","","","","","","","","",""
"true","","","","","fullscreen","1","4944","0.0-1.0","","","","","","","","","","","","","","","","","","","","","","","","","","",""
"","","","","","html-keyboard-response","2","8387","0.0-2.0","3441","<p>You are starting a demo of the <b>two-step task.</b></p><p>To see the instructions, press the ""1"" key. To skip them, press the ""2"" key.</p>","2","","","","","","","","","","","","","","","","","","","","","","","",""
"","","","","","two-step-instructions","3","19080","0.0-4.0","10689","","","[{""page_index"":0,""viewing_time"":6947},{""page_index"":1,""viewing_time"":2187},{""page_index"":2,""viewing_time"":1555}]","","","","","","","","","","","","","","","","","","","","","","",""
"","","","","","two-step-trial","4","23354","0.0-5.0-0.0","","","","","[0,1]","0","0","1417","0","1","[2,3]","0","2","832","1","[""#955db9"",""#48a782""]","[""#5f6f81"",""#7f5d5d""]","[1280,720]","1","1","[0.305,0.438,0.598,0.713]","3","0","false","","",""
"","","","","","two-step-trial","5","26096","0.0-6.0-0.0","","","","","[0,1]","0","0","312","0","1","[2,3]","0","2","399","0","[""#955db9"",""#48a782""]","[""#5f6f81"",""#7f5d5d""]","[1280,720]","1","2","[0.326,0.396,0.598,0.702]","3","0","false","","",""
"","","","","","two-step-trial","6","29146","0.0-7.0-0.0","","","","","[0,1]","0","0","394","1","0","[0,1]","1","1","638","0","[""#955db9"",""#48a782""]","[""#5f6f81"",""#7f5d5d""]","[1280,720]","1","3","[0.302,0.426,0.576,0.736]","3","0","false","","",""
"","","","","","two-step-trial","7","31945","0.0-8.0-0.0","","","","","[0,1]","0","0","233","1","0","[0,1]","1","1","540","0","[""#955db9"",""#48a782""]","[""#5f6f81"",""#7f5d5d""]","[1280,720]","1","4","[0.362,0.43,0.582,0.702]","3","0","false","","",""
"","","","","","two-step-trial","8","34653","0.0-9.0-0.0","","","","","[0,1]","0","0","246","1","0","[0,1]","0","0","443","0","[""#955db9"",""#48a782""]","[""#5f6f81"",""#7f5d5d""]","[1280,720]","1","5","[0.368,0.485,0.615,0.711]","3","0","false","","",""
"","","","","","two-step-trial","9","37195","0.0-10.0-0.0","","","","","[0,1]","0","0","228","1","0","[0,1]","0","0","287","0","[""#955db9"",""#48a782""]","[""#5f6f81"",""#7f5d5d""]","[1280,720]","1","6","[0.404,0.486,0.616,0.744]","3","0","false","","",""
"","","","","","two-step-trial","10","39766","0.0-11.0-0.0","","","","","[0,1]","0","0","254","0","1","[2,3]","0","2","299","1","[""#955db9"",""#48a782""]","[""#5f6f81"",""#7f5d5d""]","[1280,720]","1","7","[0.387,0.453,0.558,0.725]","3","0","false","","",""
"","","","","","two-step-trial","11","42509","0.0-12.0-0.0","","","","","[0,1]","0","0","305","1","0","[0,1]","0","0","411","0","[""#955db9"",""#48a782""]","[""#5f6f81"",""#7f5d5d""]","[1280,720]","1","8","[0.438,0.474,0.539,0.737]","3","0","false","","",""
"","","","","","two-step-trial","12","45501","0.0-13.0-0.0","","","","","[0,1]","1","1","357","1","1","[2,3]","0","2","612","0","[""#955db9"",""#48a782""]","[""#5f6f81"",""#7f5d5d""]","[1280,720]","1","9","[0.459,0.489,0.53,0.714]","3","0","false","","",""
"","","","","","two-step-trial","13","48643","0.0-14.0-0.0","","","","","[0,1]","1","1","65","1","1","[2,3]","0","2","1058","1","[""#955db9"",""#48a782""]","[""#5f6f81"",""#7f5d5d""]","[1280,720]","1","10","[0.45,0.506,0.534,0.707]","3","0","false","","",""
"","","","","","two-step-trial","14","51517","0.0-15.0-0.0","","","","","[0,1]","1","1","228","0","0","[0,1]","1","1","622","0","[""#955db9"",""#48a782""]","[""#5f6f81"",""#7f5d5d""]","[1280,720]","1","11","[0.425,0.476,0.477,0.71]","3","0","false","","",""
"","","","","","two-step-trial","15","54150","0.0-16.0-0.0","","","","","[0,1]","1","1","228","1","1","[2,3]","0","2","383","1","[""#955db9"",""#48a782""]","[""#5f6f81"",""#7f5d5d""]","[1280,720]","1","12","[0.397,0.483,0.492,0.681]","3","0","false","","",""
"","","","","","two-step-trial","16","56788","0.0-17.0-0.0","","","","","[0,1]","1","1","218","1","1","[2,3]","0","2","401","1","[""#955db9"",""#48a782""]","[""#5f6f81"",""#7f5d5d""]","[1280,720]","1","13","[0.407,0.496,0.476,0.697]","3","0","false","","",""
"","","","","","two-step-trial","17","59671","0.0-18.0-0.0","","","","","[0,1]","1","1","215","0","0","[0,1]","1","1","639","1","[""#955db9"",""#48a782""]","[""#5f6f81"",""#7f5d5d""]","[1280,720]","1","14","[0.369,0.494,0.493,0.747]","3","0","false","","",""
"","","","","","two-step-trial","18","62297","0.0-19.0-0.0","","","","","[0,1]","1","1","260","1","1","[2,3]","0","2","345","1","[""#955db9"",""#48a782""]","[""#5f6f81"",""#7f5d5d""]","[1280,720]","1","15","[0.342,0.537,0.465,0.735]","3","0","false","","",""
"","","","","","two-step-trial","19","65122","0.0-20.0-0.0","","","","","[0,1]","0","0","331","1","0","[0,1]","1","1","473","1","[""#955db9"",""#48a782""]","[""#5f6f81"",""#7f5d5d""]","[1280,720]","1","16","[0.313,0.512,0.467,0.743]","3","0","false","","",""
"","","","","","two-step-trial","20","68139","0.0-21.0-0.0","","","","","[0,1]","0","0","55","0","1","[2,3]","0","2","937","1","[""#955db9"",""#48a782""]","[""#5f6f81"",""#7f5d5d""]","[1280,720]","1","17","[0.313,0.504,0.486,0.73]","3","0","false","","",""
"","","","","","two-step-trial","21","70663","0.0-22.0-0.0","","","","","[0,1]","1","1","116","0","0","[0,1]","1","1","380","0","[""#955db9"",""#48a782""]","[""#5f6f81"",""#7f5d5d""]","[1280,720]","1","18","[0.334,0.526,0.501,0.707]","3","0","false","","",""
"","","","","","two-step-trial","22","73515","0.0-23.0-0.0","","","","","[0,1]","0","0","231","1","0","[0,1]","1","1","596","0","[""#955db9"",""#48a782""]","[""#5f6f81"",""#7f5d5d""]","[1280,720]","1","19","[0.312,0.543,0.473,0.695]","3","0","false","","",""
"","","","","","two-step-trial","23","76513","0.0-24.0-0.0","","","","","[0,1]","1","1","231","0","0","[0,1]","1","1","738","1","[""#955db9"",""#48a782""]","[""#5f6f81"",""#7f5d5d""]","[1280,720]","1","20","[0.304,0.536,0.482,0.668]","3","0","false","","",""
"","","","","","two-step-trial","24","79193","0.0-25.0-0.0","","","","","[0,1]","1","1","164","0","0","[0,1]","1","1","496","1","[""#955db9"",""#48a782""]","[""#5f6f81"",""#7f5d5d""]","[1280,720]","1","21","[0.309,0.543,0.477,0.682]","3","0","false","","",""
"","","","","","two-step-trial","25","81686","0.0-26.0-0.0","","","","","[0,1]","1","1","159","1","1","[2,3]","1","3","311","1","[""#955db9"",""#48a782""]","[""#5f6f81"",""#7f5d5d""]","[1280,720]","1","22","[0.301,0.563,0.45,0.702]","3","0","false","","",""
"","","","","","two-step-trial","26","84359","0.0-27.0-0.0","","","","","[0,1]","1","1","302","1","1","[2,3]","1","3","355","0","[""#955db9"",""#48a782""]","[""#5f6f81"",""#7f5d5d""]","[1280,720]","1","23","[0.322,0.569,0.42,0.742]","3","0","false","","",""
"","","","","","two-step-trial","27","87136","0.0-28.0-0.0","","","","","[0,1]","1","1","125","1","1","[2,3]","0","2","636","1","[""#955db9"",""#48a782""]","[""#5f6f81"",""#7f5d5d""]","[1280,720]","1","24","[0.298,0.566,0.43,0.74]","3","0","false","","",""
"","","","","","two-step-trial","28","89806","0.0-29.0-0.0","","","","","[0,1]","1","1","66","1","1","[2,3]","0","2","584","1","[""#955db9"",""#48a782""]","[""#5f6f81"",""#7f5d5d""]","[1280,720]","1","25","[0.293,0.552,0.394,0.669]","3","0","false","","",""
"","","","","","two-step-trial","29","92386","0.0-30.0-0.0","","","","","[0,1]","1","1","94","1","1","[2,3]","0","2","476","0","[""#955db9"",""#48a782""]","[""#5f6f81"",""#7f5d5d""]","[1280,720]","1","26","[0.285,0.566,0.393,0.625]","3","0","false","","",""
"","","","","","two-step-trial","30","94974","0.0-31.0-0.0","","","","","[0,1]","1","1","110","1","1","[2,3]","0","2","453","1","[""#955db9"",""#48a782""]","[""#5f6f81"",""#7f5d5d""]","[1280,720]","1","27","[0.303,0.511,0.422,0.685]","3","0","false","","",""
"","","","","","two-step-trial","31","97536","0.0-32.0-0.0","","","","","[0,1]","1","1","68","1","1","[2,3]","0","2","474","0","[""#955db9"",""#48a782""]","[""#5f6f81"",""#7f5d5d""]","[1280,720]","1","28","[0.301,0.517,0.418,0.733]","3","0","false","","",""
"","","","","","two-step-trial","32","100334","0.0-33.0-0.0","","","","","[0,1]","1","1","191","0","0","[0,1]","1","1","588","0","[""#955db9"",""#48a782""]","[""#5f6f81"",""#7f5d5d""]","[1280,720]","1","29","[0.345,0.508,0.373,0.733]","3","0","false","","",""
"","","","","","two-step-trial","33","102862","0.0-34.0-0.0","","","","","[0,1]","1","1","168","0","0","[0,1]","1","1","331","1","[""#955db9"",""#48a782""]","[""#5f6f81"",""#7f5d5d""]","[1280,720]","1","30","[0.33,0.509,0.425,0.737]","3","0","false","","",""
"","","","","","two-step-trial","34","105762","0.0-35.0-0.0","","","","","[0,1]","1","1","450","1","1","[2,3]","0","2","433","0","[""#955db9"",""#48a782""]","[""#5f6f81"",""#7f5d5d""]","[1280,720]","1","31","[0.33,0.475,0.428,0.706]","3","0","false","","",""
"","","","","","two-step-trial","35","108319","0.0-36.0-0.0","","","","","[0,1]","1","1","180","1","1","[2,3]","0","2","371","0","[""#955db9"",""#48a782""]","[""#5f6f81"",""#7f5d5d""]","[1280,720]","1","32","[0.332,0.492,0.442,0.701]","3","0","false","","",""
"","","","","","two-step-trial","36","110829","0.0-37.0-0.0","","","","","[0,1]","0","0","173","1","0","[0,1]","1","1","327","0","[""#955db9"",""#48a782""]","[""#5f6f81"",""#7f5d5d""]","[1280,720]","1","33","[0.306,0.461,0.388,0.724]","3","0","false","","",""
"","","","","","two-step-trial","37","113532","0.0-38.0-0.0","","","","","[0,1]","0","0","341","1","0","[0,1]","1","1","349","0","[""#955db9"",""#48a782""]","[""#5f6f81"",""#7f5d5d""]","[1280,720]","1","34","[0.335,0.445,0.418,0.721]","3","0","false","","",""
"","","","","","two-step-trial","38","116058","0.0-39.0-0.0","","","","","[0,1]","0","0","198","1","0","[0,1]","0","0","305","0","[""#955db9"",""#48a782""]","[""#5f6f81"",""#7f5d5d""]","[1280,720]","1","35","[0.342,0.479,0.439,0.713]","3","0","false","","",""
"","","","","","two-step-trial","39","118664","0.0-40.0-0.0","","","","","[0,1]","0","0","294","1","0","[0,1]","1","1","300","1","[""#955db9"",""#48a782""]","[""#5f6f81"",""#7f5d5d""]","[1280,720]","1","36","[0.323,0.462,0.51,0.711]","3","0","false","","",""
"","","","","","two-step-trial","40","121226","0.0-41.0-0.0","","","","","[0,1]","0","0","237","1","0","[0,1]","1","1","311","0","[""#955db9"",""#48a782""]","[""#5f6f81"",""#7f5d5d""]","[1280,720]","1","37","[0.323,0.441,0.493,0.674]","3","0","false","","",""
"","","","","","two-step-trial","41","123832","0.0-42.0-0.0","","","","","[0,1]","0","0","226","0","1","[2,3]","0","2","362","0","[""#955db9"",""#48a782""]","[""#5f6f81"",""#7f5d5d""]","[1280,720]","1","38","[0.361,0.419,0.482,0.648]","3","0","false","","",""
"","","","","","two-step-trial","42","126453","0.0-43.0-0.0","","","","","[0,1]","0","0","322","1","0","[0,1]","1","1","279","0","[""#955db9"",""#48a782""]","[""#5f6f81"",""#7f5d5d""]","[1280,720]","1","39","[0.386,0.389,0.441,0.619]","3","0","false","","",""
"","","","","","two-step-trial","43","129057","0.0-44.0-0.0","","","","","[0,1]","0","0","265","1","0","[0,1]","1","1","313","0","[""#955db9"",""#48a782""]","[""#5f6f81"",""#7f5d5d""]","[1280,720]","1","40","[0.384,0.374,0.431,0.605]","3","0","false","","",""
"","","","","","two-step-trial","44","131648","0.0-45.0-0.0","","","","","[0,1]","0","0","213","1","0","[0,1]","1","1","356","0","[""#955db9"",""#48a782""]","[""#5f6f81"",""#7f5d5d""]","[1280,720]","1","41","[0.382,0.413,0.442,0.617]","3","0","false","","",""
"","","","","","two-step-trial","45","134142","0.0-46.0-0.0","","","","","[0,1]","0","0","223","0","1","[2,3]","1","3","265","1","[""#955db9"",""#48a782""]","[""#5f6f81"",""#7f5d5d""]","[1280,720]","1","42","[0.398,0.39,0.424,0.641]","3","0","false","","",""
"","","","","","two-step-trial","46","136777","0.0-47.0-0.0","","","","","[0,1]","1","1","251","1","1","[2,3]","0","2","362","0","[""#955db9"",""#48a782""]","[""#5f6f81"",""#7f5d5d""]","[1280,720]","1","43","[0.37,0.404,0.412,0.63]","3","0","false","","",""
"","","","","","two-step-trial","47","139375","0.0-48.0-0.0","","","","","[0,1]","1","1","264","0","0","[0,1]","0","0","310","1","[""#955db9"",""#48a782""]","[""#5f6f81"",""#7f5d5d""]","[1280,720]","1","44","[0.417,0.444,0.403,0.613]","3","0","false","","",""
"","","","","","two-step-trial","48","141932","0.0-49.0-0.0","","","","","[0,1]","0","0","212","1","0","[0,1]","1","1","327","1","[""#955db9"",""#48a782""]","[""#5f6f81"",""#7f5d5d""]","[1280,720]","1","45","[0.439,0.427,0.37,0.612]","3","0","false","","",""
"","","","","","two-step-trial","49","144993","0.0-50.0-0.0","","","","","[0,1]","0","0","290","0","1","[2,3]","0","2","751","0","[""#955db9"",""#48a782""]","[""#5f6f81"",""#7f5d5d""]","[1280,720]","1","46","[0.459,0.416,0.369,0.621]","3","0","false","","",""
"","","","","","two-step-trial","50","147442","0.0-51.0-0.0","","","","","[0,1]","0","0","87","1","0","[0,1]","1","1","340","1","[""#955db9"",""#48a782""]","[""#5f6f81"",""#7f5d5d""]","[1280,720]","1","47","[0.475,0.425,0.384,0.6]","3","0","false","","",""
"","","","","","two-step-trial","51","150056","0.0-52.0-0.0","","","","","[0,1]","1","1","231","0","0","[0,1]","0","0","367","1","[""#955db9"",""#48a782""]","[""#5f6f81"",""#7f5d5d""]","[1280,720]","1","48","[0.438,0.4,0.412,0.606]","3","0","false","","",""
"","","","","","two-step-trial","52","152561","0.0-53.0-0.0","","","","","[0,1]","0","0","147","1","0","[0,1]","1","1","330","1","[""#955db9"",""#48a782""]","[""#5f6f81"",""#7f5d5d""]","[1280,720]","1","49","[0.47,0.408,0.421,0.598]","3","0","false","","",""
"","","","","","two-step-trial","53","155242","0.0-54.0-0.0","","","","","[0,1]","1","1","154","1","1","[2,3]","0","2","506","0","[""#955db9"",""#48a782""]","[""#5f6f81"",""#7f5d5d""]","[1280,720]","1","50","[0.41,0.42,0.42,0.6]","3","0","false","","",""
"","","","","","two-step-trial","54","157754","0.0-55.0-0.0","","","","","[0,1]","0","0","164","1","0","[0,1]","1","1","331","0","[""#955db9"",""#48a782""]","[""#5f6f81"",""#7f5d5d""]","[1280,720]","1","51","[0.412,0.415,0.461,0.564]","3","0","false","","",""
"","","","","","two-step-trial","55","160831","0.0-56.0-0.0","","","","","[0,1]","1","1","317","1","1","[2,3]","0","2","750","0","[""#955db9"",""#48a782""]","[""#5f6f81"",""#7f5d5d""]","[1280,720]","1","52","[0.424,0.4,0.482,0.568]","3","0","false","","",""
"","","","","","two-step-trial","56","163440","0.0-57.0-0.0","","","","","[0,1]","0","0","249","1","0","[0,1]","1","1","333","0","[""#955db9"",""#48a782""]","[""#5f6f81"",""#7f5d5d""]","[1280,720]","1","53","[0.449,0.35,0.448,0.582]","3","0","false","","",""
"","","","","","two-step-trial","57","166058","0.0-58.0-0.0","","","","","[0,1]","0","0","232","0","1","[2,3]","0","2","366","0","[""#955db9"",""#48a782""]","[""#5f6f81"",""#7f5d5d""]","[1280,720]","1","54","[0.409,0.381,0.436,0.573]","3","0","false","","",""
"","","","","","two-step-trial","58","168963","0.0-59.0-0.0","","","","","[0,1]","0","0","247","1","0","[0,1]","1","1","650","0","[""#955db9"",""#48a782""]","[""#5f6f81"",""#7f5d5d""]","[1280,720]","1","55","[0.408,0.407,0.428,0.609]","3","0","false","","",""
"","","","","","two-step-trial","59","171915","0.0-60.0-0.0","","","","","[0,1]","0","0","529","1","0","[0,1]","1","1","403","0","[""#955db9"",""#48a782""]","[""#5f6f81"",""#7f5d5d""]","[1280,720]","1","56","[0.417,0.354,0.381,0.598]","3","0","false","","",""
"","","","","","two-step-trial","60","174460","0.0-61.0-0.0","","","","","[0,1]","1","1","154","1","1","[2,3]","0","2","364","0","[""#955db9"",""#48a782""]","[""#5f6f81"",""#7f5d5d""]","[1280,720]","1","57","[0.462,0.35,0.396,0.55]","3","0","false","","",""
"","","","","","two-step-trial","61","177131","0.0-62.0-0.0","","","","","[0,1]","0","0","276","1","0","[0,1]","1","1","367","1","[""#955db9"",""#48a782""]","[""#5f6f81"",""#7f5d5d""]","[1280,720]","1","58","[0.474,0.332,0.382,0.55]","3","0","false","","",""
"","","","","","two-step-trial","62","179687","0.0-63.0-0.0","","","","","[0,1]","1","1","194","0","0","[0,1]","0","0","341","0","[""#955db9"",""#48a782""]","[""#5f6f81"",""#7f5d5d""]","[1280,720]","1","59","[0.462,0.326,0.376,0.559]","3","0","false","","",""
"","","","","","two-step-trial","63","182812","0.0-64.0-0.0","","","","","[0,1]","0","0","244","0","1","[2,3]","0","2","869","0","[""#955db9"",""#48a782""]","[""#5f6f81"",""#7f5d5d""]","[1280,720]","1","60","[0.432,0.348,0.372,0.56]","3","0","false","","",""
"","","","","","two-step-trial","64","185422","0.0-65.0-0.0","","","","","[0,1]","1","1","245","1","1","[2,3]","0","2","348","0","[""#955db9"",""#48a782""]","[""#5f6f81"",""#7f5d5d""]","[1280,720]","1","61","[0.43,0.371,0.389,0.587]","3","0","false","","",""
"","","","","","two-step-trial","65","188044","0.0-66.0-0.0","","","","","[0,1]","0","0","246","1","0","[0,1]","1","1","364","1","[""#955db9"",""#48a782""]","[""#5f6f81"",""#7f5d5d""]","[1280,720]","1","62","[0.426,0.371,0.382,0.585]","3","0","false","","",""
"","","","","","two-step-trial","66","190704","0.0-67.0-0.0","","","","","[0,1]","0","0","280","0","1","[2,3]","1","3","365","1","[""#955db9"",""#48a782""]","[""#5f6f81"",""#7f5d5d""]","[1280,720]","1","63","[0.431,0.358,0.396,0.59]","3","0","false","","",""
"","","","","","two-step-trial","67","193347","0.0-68.0-0.0","","","","","[0,1]","0","0","306","1","0","[0,1]","1","1","314","1","[""#955db9"",""#48a782""]","[""#5f6f81"",""#7f5d5d""]","[1280,720]","1","64","[0.392,0.299,0.415,0.581]","3","0","false","","",""
"","","","","","two-step-trial","68","195789","0.0-69.0-0.0","","","","","[0,1]","0","0","28","0","1","[2,3]","1","3","401","0","[""#955db9"",""#48a782""]","[""#5f6f81"",""#7f5d5d""]","[1280,720]","1","65","[0.371,0.329,0.405,0.589]","3","0","false","","",""
"","","","","","two-step-trial","69","198471","0.0-70.0-0.0","","","","","[0,1]","0","0","225","1","0","[0,1]","1","1","450","1","[""#955db9"",""#48a782""]","[""#5f6f81"",""#7f5d5d""]","[1280,720]","1","66","[0.354,0.287,0.413,0.591]","3","0","false","","",""
"","","","","","two-step-trial","70","201079","0.0-71.0-0.0","","","","","[0,1]","0","0","255","1","0","[0,1]","1","1","334","0","[""#955db9"",""#48a782""]","[""#5f6f81"",""#7f5d5d""]","[1280,720]","1","67","[0.398,0.254,0.426,0.603]","3","0","false","","",""
"","","","","","two-step-trial","71","203668","0.0-72.0-0.0","","","","","[0,1]","1","1","235","1","1","[2,3]","0","2","340","1","[""#955db9"",""#48a782""]","[""#5f6f81"",""#7f5d5d""]","[1280,720]","1","68","[0.425,0.254,0.441,0.582]","3","0","false","","",""
"","","","","","two-step-trial","72","206256","0.0-73.0-0.0","","","","","[0,1]","1","1","208","1","1","[2,3]","0","2","359","0","[""#955db9"",""#48a782""]","[""#5f6f81"",""#7f5d5d""]","[1280,720]","1","69","[0.474,0.287,0.392,0.531]","3","0","false","","",""
"","","","","","two-step-trial","73","208839","0.0-74.0-0.0","","","","","[0,1]","0","0","247","1","0","[0,1]","1","1","320","1","[""#955db9"",""#48a782""]","[""#5f6f81"",""#7f5d5d""]","[1280,720]","1","70","[0.51,0.279,0.378,0.487]","3","0","false","","",""
"","","","","","two-step-trial","74","211576","0.0-75.0-0.0","","","","","[0,1]","0","0","270","0","1","[2,3]","1","3","450","1","[""#955db9"",""#48a782""]","[""#5f6f81"",""#7f5d5d""]","[1280,720]","1","71","[0.506,0.269,0.381,0.477]","3","0","false","","",""
"","","","","","two-step-trial","75","214177","0.0-76.0-0.0","","","","","[0,1]","0","0","234","1","0","[0,1]","1","1","353","0","[""#955db9"",""#48a782""]","[""#5f6f81"",""#7f5d5d""]","[1280,720]","1","72","[0.541,0.263,0.39,0.466]","3","0","false","","",""
"","","","","","two-step-trial","76","216833","0.0-77.0-0.0","","","","","[0,1]","1","1","255","1","1","[2,3]","0","2","370","1","[""#955db9"",""#48a782""]","[""#5f6f81"",""#7f5d5d""]","[1280,720]","1","73","[0.49,0.271,0.373,0.466]","3","0","false","","",""
"","","","","","two-step-trial","77","219608","0.0-78.0-0.0","","","","","[0,1]","1","1","238","0","0","[0,1]","1","1","509","1","[""#955db9"",""#48a782""]","[""#5f6f81"",""#7f5d5d""]","[1280,720]","1","74","[0.512,0.277,0.41,0.457]","3","0","false","","",""
"","","","","","two-step-trial","78","222225","0.0-79.0-0.0","","","","","[0,1]","1","1","178","1","1","[2,3]","0","2","411","1","[""#955db9"",""#48a782""]","[""#5f6f81"",""#7f5d5d""]","[1280,720]","1","75","[0.537,0.271,0.42,0.478]","3","0","false","","",""
"","","","","","two-step-instructions","79","226754","0.0-80.0","4526","","","[{""page_index"":0,""viewing_time"":263},{""page_index"":1,""viewing_time"":4263}]","","","","","","","","","","","","","","","","","","","","","","",""
"","","","","","two-step-trial","80","230225","0.0-81.0-0.0","","","","","[0,1]","1","1","893","1","1","[2,3]","0","2","563","0","[""#955db9"",""#48a782""]","[""#5f6f81"",""#7f5d5d""]","[1280,720]","1","76","[0.539,0.257,0.455,0.448]","3","0","false","","",""
"","","","","","two-step-trial","81","232945","0.0-82.0-0.0","","","","","[0,1]","1","1","328","1","1","[2,3]","1","3","368","1","[""#955db9"",""#48a782""]","[""#5f6f81"",""#7f5d5d""]","[1280,720]","1","77","[0.56,0.261,0.459,0.423]","3","0","false","","",""
"","","","","","two-step-trial","82","235635","0.0-83.0-0.0","","","","","[0,1]","1","1","270","1","1","[2,3]","1","3","398","0","[""#955db9"",""#48a782""]","[""#5f6f81"",""#7f5d5d""]","[1280,720]","1","78","[0.543,0.26,0.436,0.441]","3","0","false","","",""
"","","","","","two-step-trial","83","238149","0.0-84.0-0.0","","","","","[0,1]","1","1","202","1","1","[2,3]","1","3","292","1","[""#955db9"",""#48a782""]","[""#5f6f81"",""#7f5d5d""]","[1280,720]","1","79","[0.536,0.268,0.465,0.475]","3","0","false","","",""
"","","","","","two-step-trial","84","240845","0.0-85.0-0.0","","","","","[0,1]","1","1","263","1","1","[2,3]","1","3","409","1","[""#955db9"",""#48a782""]","[""#5f6f81"",""#7f5d5d""]","[1280,720]","1","80","[0.534,0.324,0.464,0.482]","3","0","false","","",""
"","","","","","two-step-trial","85","243880","0.0-86.0-0.0","","","","","[0,1]","1","1","254","0","0","[0,1]","0","0","769","0","[""#955db9"",""#48a782""]","[""#5f6f81"",""#7f5d5d""]","[1280,720]","1","81","[0.553,0.309,0.445,0.465]","3","0","false","","",""
"","","","","","two-step-trial","86","246895","0.0-87.0-0.0","","","","","[0,1]","1","1","249","1","1","[2,3]","1","3","753","0","[""#955db9"",""#48a782""]","[""#5f6f81"",""#7f5d5d""]","[1280,720]","1","82","[0.563,0.291,0.404,0.437]","3","0","false","","",""
"","","","","","two-step-trial","87","249771","0.0-88.0-0.0","","","","","[0,1]","1","1","199","1","1","[2,3]","1","3","663","0","[""#955db9"",""#48a782""]","[""#5f6f81"",""#7f5d5d""]","[1280,720]","1","83","[0.563,0.298,0.442,0.474]","3","0","false","","",""
"","","","","","two-step-trial","88","252315","0.0-89.0-0.0","","","","","[0,1]","1","1","147","0","0","[0,1]","1","1","381","0","[""#955db9"",""#48a782""]","[""#5f6f81"",""#7f5d5d""]","[1280,720]","1","84","[0.591,0.316,0.454,0.449]","3","0","false","","",""
"","","","","","two-step-trial","89","255111","0.0-90.0-0.0","","","","","[0,1]","1","1","337","1","1","[2,3]","1","3","437","1","[""#955db9"",""#48a782""]","[""#5f6f81"",""#7f5d5d""]","[1280,720]","1","85","[0.57,0.324,0.436,0.421]","3","0","false","","",""
"","","","","","two-step-trial","90","257610","0.0-91.0-0.0","","","","","[0,1]","0","0","134","1","0","[0,1]","0","0","343","0","[""#955db9"",""#48a782""]","[""#5f6f81"",""#7f5d5d""]","[1280,720]","1","86","[0.531,0.336,0.408,0.378]","3","0","false","","",""
"","","","","","two-step-trial","91","260316","0.0-92.0-0.0","","","","","[0,1]","0","0","331","1","0","[0,1]","1","1","364","0","[""#955db9"",""#48a782""]","[""#5f6f81"",""#7f5d5d""]","[1280,720]","1","87","[0.529,0.309,0.432,0.403]","3","0","false","","",""
"","","","","","two-step-trial","92","262890","0.0-93.0-0.0","","","","","[0,1]","0","0","272","1","0","[0,1]","0","0","294","0","[""#955db9"",""#48a782""]","[""#5f6f81"",""#7f5d5d""]","[1280,720]","1","88","[0.532,0.296,0.431,0.406]","3","0","false","","",""
"","","","","","two-step-trial","93","265470","0.0-94.0-0.0","","","","","[0,1]","0","0","191","1","0","[0,1]","1","1","374","1","[""#955db9"",""#48a782""]","[""#5f6f81"",""#7f5d5d""]","[1280,720]","1","89","[0.553,0.328,0.456,0.411]","3","0","false","","",""
"","","","","","two-step-trial","94","268304","0.0-95.0-0.0","","","","","[0,1]","1","1","319","1","1","[2,3]","1","3","496","0","[""#955db9"",""#48a782""]","[""#5f6f81"",""#7f5d5d""]","[1280,720]","1","90","[0.542,0.3,0.493,0.409]","3","0","false","","",""
"","","","","","two-step-trial","95","270905","0.0-96.0-0.0","","","","","[0,1]","1","1","286","0","0","[0,1]","1","1","287","0","[""#955db9"",""#48a782""]","[""#5f6f81"",""#7f5d5d""]","[1280,720]","1","91","[0.54,0.298,0.512,0.437]","3","0","false","","",""
"","","","","","two-step-trial","96","273597","0.0-97.0-0.0","","","","","[0,1]","1","1","231","0","0","[0,1]","1","1","433","0","[""#955db9"",""#48a782""]","[""#5f6f81"",""#7f5d5d""]","[1280,720]","1","92","[0.564,0.281,0.499,0.45]","3","0","false","","",""
"","","","","","two-step-trial","97","276200","0.0-98.0-0.0","","","","","[0,1]","1","1","270","0","0","[0,1]","1","1","316","0","[""#955db9"",""#48a782""]","[""#5f6f81"",""#7f5d5d""]","[1280,720]","1","93","[0.542,0.268,0.44,0.42]","3","0","false","","",""
"","","","","","two-step-trial","98","279243","0.0-99.0-0.0","","","","","[0,1]","1","1","453","1","1","[2,3]","1","3","571","1","[""#955db9"",""#48a782""]","[""#5f6f81"",""#7f5d5d""]","[1280,720]","1","94","[0.539,0.26,0.421,0.438]","3","0","false","","",""
"","","","","","two-step-trial","99","281924","0.0-100.0-0.0","","","","","[0,1]","1","1","251","0","0","[0,1]","1","1","406","1","[""#955db9"",""#48a782""]","[""#5f6f81"",""#7f5d5d""]","[1280,720]","1","95","[0.583,0.272,0.407,0.449]","3","0","false","","",""
"","","","","","two-step-trial","100","284347","0.0-101.0-0.0","","","","","[0,1]","1","1","109","1","1","[2,3]","1","3","294","1","[""#955db9"",""#48a782""]","[""#5f6f81"",""#7f5d5d""]","[1280,720]","1","96","[0.596,0.257,0.37,0.508]","3","0","false","","",""
"","","","","","two-step-trial","101","286925","0.0-102.0-0.0","","","","","[0,1]","1","1","267","0","0","[0,1]","1","1","301","0","[""#955db9"",""#48a782""]","[""#5f6f81"",""#7f5d5d""]","[1280,720]","1","97","[0.6,0.317,0.384,0.526]","3","0","false","","",""
"","","","","","two-step-trial","102","289654","0.0-103.0-0.0","","","","","[0,1]","1","1","125","1","1","[2,3]","1","3","588","0","[""#955db9"",""#48a782""]","[""#5f6f81"",""#7f5d5d""]","[1280,720]","1","98","[0.573,0.304,0.387,0.504]","3","0","false","","",""
"","","","","","two-step-trial","103","292233","0.0-104.0-0.0","","","","","[0,1]","1","1","148","1","1","[2,3]","1","3","412","0","[""#955db9"",""#48a782""]","[""#5f6f81"",""#7f5d5d""]","[1280,720]","1","99","[0.567,0.288,0.405,0.531]","3","0","false","","",""
"","","","","","two-step-trial","104","294872","0.0-105.0-0.0","","","","","[0,1]","1","1","306","1","1","[2,3]","1","3","310","0","[""#955db9"",""#48a782""]","[""#5f6f81"",""#7f5d5d""]","[1280,720]","1","100","[0.535,0.255,0.402,0.526]","3","0","false","","",""
"","","","","","two-step-trial","105","297530","0.0-106.0-0.0","","","","","[0,1]","1","1","274","1","1","[2,3]","0","2","366","0","[""#955db9"",""#48a782""]","[""#5f6f81"",""#7f5d5d""]","[1280,720]","1","101","[0.52,0.27,0.348,0.507]","3","0","false","","",""
"","","","","","two-step-trial","106","300241","0.0-107.0-0.0","","","","","[0,1]","1","1","291","1","1","[2,3]","0","2","401","0","[""#955db9"",""#48a782""]","[""#5f6f81"",""#7f5d5d""]","[1280,720]","1","102","[0.518,0.277,0.374,0.503]","3","0","false","","",""
"","","","","","two-step-trial","107","302885","0.0-108.0-0.0","","","","","[0,1]","1","1","370","1","1","[2,3]","1","3","262","0","[""#955db9"",""#48a782""]","[""#5f6f81"",""#7f5d5d""]","[1280,720]","1","103","[0.492,0.318,0.345,0.483]","3","0","false","","",""
"","","","","","two-step-trial","108","305454","0.0-109.0-0.0","","","","","[0,1]","1","1","245","0","0","[0,1]","0","0","303","0","[""#955db9"",""#48a782""]","[""#5f6f81"",""#7f5d5d""]","[1280,720]","1","104","[0.494,0.305,0.344,0.485]","3","0","false","","",""
"","","","","","two-step-trial","109","308015","0.0-110.0-0.0","","","","","[0,1]","1","1","198","0","0","[0,1]","1","1","332","0","[""#955db9"",""#48a782""]","[""#5f6f81"",""#7f5d5d""]","[1280,720]","1","105","[0.496,0.279,0.36,0.503]","3","0","false","","",""
"","","","","","two-step-trial","110","310563","0.0-111.0-0.0","","","","","[0,1]","1","1","224","1","1","[2,3]","1","3","312","1","[""#955db9"",""#48a782""]","[""#5f6f81"",""#7f5d5d""]","[1280,720]","1","106","[0.522,0.291,0.358,0.537]","3","0","false","","",""
"","","","","","two-step-trial","111","313086","0.0-112.0-0.0","","","","","[0,1]","1","1","216","0","0","[0,1]","1","1","286","1","[""#955db9"",""#48a782""]","[""#5f6f81"",""#7f5d5d""]","[1280,720]","1","107","[0.481,0.324,0.357,0.499]","3","0","false","","",""
"","","","","","two-step-trial","112","315430","0.0-113.0-0.0","","","","","[0,1]","1","1","46","1","1","[2,3]","1","3","271","1","[""#955db9"",""#48a782""]","[""#5f6f81"",""#7f5d5d""]","[1280,720]","1","108","[0.504,0.334,0.327,0.481]","3","0","false","","",""
"","","","","","two-step-trial","113","318203","0.0-114.0-0.0","","","","","[0,1]","1","1","370","1","1","[2,3]","1","3","393","1","[""#955db9"",""#48a782""]","[""#5f6f81"",""#7f5d5d""]","[1280,720]","1","109","[0.526,0.339,0.308,0.485]","3","0","false","","",""
"","","","","","two-step-trial","114","320536","0.0-115.0-0.0","","","","","[0,1]","1","1","9","0","0","[0,1]","1","1","297","0","[""#955db9"",""#48a782""]","[""#5f6f81"",""#7f5d5d""]","[1280,720]","1","110","[0.551,0.358,0.295,0.444]","3","0","false","","",""
"","","","","","two-step-trial","115","323206","0.0-116.0-0.0","","","","","[0,1]","1","1","232","0","0","[0,1]","1","1","422","0","[""#955db9"",""#48a782""]","[""#5f6f81"",""#7f5d5d""]","[1280,720]","1","111","[0.517,0.359,0.323,0.417]","3","0","false","","",""
"","","","","","two-step-trial","116","325801","0.0-117.0-0.0","","","","","[0,1]","1","1","151","1","1","[2,3]","1","3","413","0","[""#955db9"",""#48a782""]","[""#5f6f81"",""#7f5d5d""]","[1280,720]","1","112","[0.506,0.34,0.322,0.412]","3","0","false","","",""
"","","","","","two-step-trial","117","328415","0.0-118.0-0.0","","","","","[0,1]","1","1","199","1","1","[2,3]","1","3","385","1","[""#955db9"",""#48a782""]","[""#5f6f81"",""#7f5d5d""]","[1280,720]","1","113","[0.467,0.28,0.348,0.413]","3","0","false","","",""
"","","","","","two-step-trial","118","331168","0.0-119.0-0.0","","","","","[0,1]","1","1","299","1","1","[2,3]","1","3","438","1","[""#955db9"",""#48a782""]","[""#5f6f81"",""#7f5d5d""]","[1280,720]","1","114","[0.494,0.276,0.373,0.43]","3","0","false","","",""
"","","","","","two-step-trial","119","333733","0.0-120.0-0.0","","","","","[0,1]","1","1","164","0","0","[0,1]","1","1","378","0","[""#955db9"",""#48a782""]","[""#5f6f81"",""#7f5d5d""]","[1280,720]","1","115","[0.493,0.258,0.428,0.412]","3","0","false","","",""
"","","","","","two-step-trial","120","336359","0.0-121.0-0.0","","","","","[0,1]","1","1","276","0","0","[0,1]","1","1","339","1","[""#955db9"",""#48a782""]","[""#5f6f81"",""#7f5d5d""]","[1280,720]","1","116","[0.492,0.266,0.447,0.466]","3","0","false","","",""
"","","","","","two-step-trial","121","339066","0.0-122.0-0.0","","","","","[0,1]","1","1","379","1","1","[2,3]","1","3","297","0","[""#955db9"",""#48a782""]","[""#5f6f81"",""#7f5d5d""]","[1280,720]","1","117","[0.512,0.269,0.457,0.471]","3","0","false","","",""
"","","","","","two-step-trial","122","341428","0.0-123.0-0.0","","","","","[0,1]","1","1","88","1","1","[2,3]","1","3","247","1","[""#955db9"",""#48a782""]","[""#5f6f81"",""#7f5d5d""]","[1280,720]","1","118","[0.551,0.283,0.506,0.484]","3","0","false","","",""
"","","","","","two-step-trial","123","343774","0.0-124.0-0.0","","","","","[0,1]","1","1","13","1","1","[2,3]","1","3","303","0","[""#955db9"",""#48a782""]","[""#5f6f81"",""#7f5d5d""]","[1280,720]","1","119","[0.537,0.273,0.462,0.473]","3","0","false","","",""
"","","","","","two-step-trial","124","346382","0.0-125.0-0.0","","","","","[0,1]","1","1","247","1","1","[2,3]","1","3","335","0","[""#955db9"",""#48a782""]","[""#5f6f81"",""#7f5d5d""]","[1280,720]","1","120","[0.49,0.26,0.46,0.477]","3","0","false","","",""
"","","","","","two-step-trial","125","348929","0.0-126.0-0.0","","","","","[0,1]","1","1","249","0","0","[0,1]","1","1","271","0","[""#955db9"",""#48a782""]","[""#5f6f81"",""#7f5d5d""]","[1280,720]","1","121","[0.547,0.275,0.457,0.431]","3","0","false","","",""
"","","","","","two-step-trial","126","351523","0.0-127.0-0.0","","","","","[0,1]","1","1","320","1","1","[2,3]","1","3","262","0","[""#955db9"",""#48a782""]","[""#5f6f81"",""#7f5d5d""]","[1280,720]","1","122","[0.578,0.269,0.386,0.411]","3","0","false","","",""
"","","","","","two-step-trial","127","354106","0.0-128.0-0.0","","","","","[0,1]","1","1","270","1","1","[2,3]","0","2","297","1","[""#955db9"",""#48a782""]","[""#5f6f81"",""#7f5d5d""]","[1280,720]","1","123","[0.639,0.269,0.384,0.429]","3","0","false","","",""
"","","","","","two-step-trial","128","356717","0.0-129.0-0.0","","","","","[0,1]","1","1","284","1","1","[2,3]","0","2","302","1","[""#955db9"",""#48a782""]","[""#5f6f81"",""#7f5d5d""]","[1280,720]","1","124","[0.636,0.254,0.416,0.449]","3","0","false","","",""
"","","","","","two-step-trial","129","359216","0.0-130.0-0.0","","","","","[0,1]","1","1","169","1","1","[2,3]","0","2","310","0","[""#955db9"",""#48a782""]","[""#5f6f81"",""#7f5d5d""]","[1280,720]","1","125","[0.665,0.257,0.44,0.433]","3","0","false","","",""
"","","","","","two-step-trial","130","361835","0.0-131.0-0.0","","","","","[0,1]","1","1","258","1","1","[2,3]","1","3","343","0","[""#955db9"",""#48a782""]","[""#5f6f81"",""#7f5d5d""]","[1280,720]","1","126","[0.694,0.25,0.453,0.414]","3","0","false","","",""
"","","","","","two-step-trial","131","364362","0.0-132.0-0.0","","","","","[0,1]","1","1","188","1","1","[2,3]","0","2","316","0","[""#955db9"",""#48a782""]","[""#5f6f81"",""#7f5d5d""]","[1280,720]","1","127","[0.666,0.266,0.449,0.399]","3","0","false","","",""
"","","","","","two-step-trial","132","366902","0.0-133.0-0.0","","","","","[0,1]","0","0","190","1","0","[0,1]","1","1","326","0","[""#955db9"",""#48a782""]","[""#5f6f81"",""#7f5d5d""]","[1280,720]","1","128","[0.66,0.272,0.461,0.39]","3","0","false","","",""
"","","","","","two-step-trial","133","369539","0.0-134.0-0.0","","","","","[0,1]","0","0","261","1","0","[0,1]","0","0","343","1","[""#955db9"",""#48a782""]","[""#5f6f81"",""#7f5d5d""]","[1280,720]","1","129","[0.677,0.288,0.452,0.388]","3","0","false","","",""
"","","","","","two-step-trial","134","372080","0.0-135.0-0.0","","","","","[0,1]","0","0","240","0","1","[2,3]","0","2","279","0","[""#955db9"",""#48a782""]","[""#5f6f81"",""#7f5d5d""]","[1280,720]","1","130","[0.654,0.252,0.415,0.434]","3","0","false","","",""
"","","","","","two-step-trial","135","374798","0.0-136.0-0.0","","","","","[0,1]","0","0","344","1","0","[0,1]","0","0","361","0","[""#955db9"",""#48a782""]","[""#5f6f81"",""#7f5d5d""]","[1280,720]","1","131","[0.662,0.271,0.398,0.411]","3","0","false","","",""
"","","","","","two-step-trial","136","377437","0.0-137.0-0.0","","","","","[0,1]","0","0","267","1","0","[0,1]","1","1","348","0","[""#955db9"",""#48a782""]","[""#5f6f81"",""#7f5d5d""]","[1280,720]","1","132","[0.661,0.29,0.402,0.435]","3","0","false","","",""
"","","","","","two-step-trial","137","380084","0.0-138.0-0.0","","","","","[0,1]","0","0","310","0","1","[2,3]","1","3","313","0","[""#955db9"",""#48a782""]","[""#5f6f81"",""#7f5d5d""]","[1280,720]","1","133","[0.665,0.307,0.385,0.395]","3","0","false","","",""
"","","","","","two-step-trial","138","382885","0.0-139.0-0.0","","","","","[0,1]","1","1","486","1","1","[2,3]","1","3","292","0","[""#955db9"",""#48a782""]","[""#5f6f81"",""#7f5d5d""]","[1280,720]","1","134","[0.696,0.308,0.332,0.425]","3","0","false","","",""
"","","","","","two-step-trial","139","385456","0.0-140.0-0.0","","","","","[0,1]","0","0","220","1","0","[0,1]","1","1","326","0","[""#955db9"",""#48a782""]","[""#5f6f81"",""#7f5d5d""]","[1280,720]","1","135","[0.68,0.339,0.346,0.425]","3","0","false","","",""
"","","","","","two-step-trial","140","388420","0.0-141.0-0.0","","","","","[0,1]","0","0","252","0","1","[2,3]","1","3","694","1","[""#955db9"",""#48a782""]","[""#5f6f81"",""#7f5d5d""]","[1280,720]","1","136","[0.674,0.33,0.342,0.403]","3","0","false","","",""
"","","","","","two-step-trial","141","391139","0.0-142.0-0.0","","","","","[0,1]","1","1","246","1","1","[2,3]","1","3","449","0","[""#955db9"",""#48a782""]","[""#5f6f81"",""#7f5d5d""]","[1280,720]","1","137","[0.699,0.293,0.329,0.403]","3","0","false","","",""
"","","","","","two-step-trial","142","393647","0.0-143.0-0.0","","","","","[0,1]","0","0","229","1","0","[0,1]","1","1","263","0","[""#955db9"",""#48a782""]","[""#5f6f81"",""#7f5d5d""]","[1280,720]","1","138","[0.734,0.332,0.387,0.413]","3","0","false","","",""
"","","","","","two-step-trial","143","396212","0.0-144.0-0.0","","","","","[0,1]","1","1","213","1","1","[2,3]","1","3","322","1","[""#955db9"",""#48a782""]","[""#5f6f81"",""#7f5d5d""]","[1280,720]","1","139","[0.692,0.301,0.41,0.413]","3","0","false","","",""
"","","","","","two-step-trial","144","399152","0.0-145.0-0.0","","","","","[0,1]","1","1","410","1","1","[2,3]","1","3","510","0","[""#955db9"",""#48a782""]","[""#5f6f81"",""#7f5d5d""]","[1280,720]","1","140","[0.722,0.286,0.408,0.406]","3","0","false","","",""
"","","","","","two-step-trial","145","402004","0.0-146.0-0.0","","","","","[0,1]","0","0","401","1","0","[0,1]","1","1","429","0","[""#955db9"",""#48a782""]","[""#5f6f81"",""#7f5d5d""]","[1280,720]","1","141","[0.748,0.253,0.428,0.403]","3","0","false","","",""
"","","","","","two-step-trial","146","404599","0.0-147.0-0.0","","","","","[0,1]","1","1","236","1","1","[2,3]","1","3","341","0","[""#955db9"",""#48a782""]","[""#5f6f81"",""#7f5d5d""]","[1280,720]","1","142","[0.73,0.307,0.452,0.407]","3","0","false","","",""
"","","","","","two-step-trial","147","407147","0.0-148.0-0.0","","","","","[0,1]","1","1","66","1","1","[2,3]","1","3","470","0","[""#955db9"",""#48a782""]","[""#5f6f81"",""#7f5d5d""]","[1280,720]","1","143","[0.722,0.322,0.426,0.388]","3","0","false","","",""
"","","","","","two-step-trial","148","409912","0.0-149.0-0.0","","","","","[0,1]","1","1","392","1","1","[2,3]","1","3","354","0","[""#955db9"",""#48a782""]","[""#5f6f81"",""#7f5d5d""]","[1280,720]","1","144","[0.741,0.323,0.436,0.398]","3","0","false","","",""
"","","","","","two-step-trial","149","412546","0.0-150.0-0.0","","","","","[0,1]","0","0","210","1","0","[0,1]","1","1","408","1","[""#955db9"",""#48a782""]","[""#5f6f81"",""#7f5d5d""]","[1280,720]","1","145","[0.741,0.294,0.454,0.41]","3","0","false","","",""
"","","","","","two-step-trial","150","415242","0.0-151.0-0.0","","","","","[0,1]","0","0","334","1","0","[0,1]","1","1","352","0","[""#955db9"",""#48a782""]","[""#5f6f81"",""#7f5d5d""]","[1280,720]","1","146","[0.741,0.316,0.493,0.383]","3","0","false","","",""
"","","","","","two-step-trial","151","418021","0.0-152.0-0.0","","","","","[0,1]","0","0","337","1","0","[0,1]","1","1","411","0","[""#955db9"",""#48a782""]","[""#5f6f81"",""#7f5d5d""]","[1280,720]","1","147","[0.733,0.288,0.53,0.358]","3","0","false","","",""
"","","","","","two-step-trial","152","420806","0.0-153.0-0.0","","","","","[0,1]","0","0","439","1","0","[0,1]","0","0","333","0","[""#955db9"",""#48a782""]","[""#5f6f81"",""#7f5d5d""]","[1280,720]","1","148","[0.739,0.274,0.493,0.38]","3","0","false","","",""
"","","","","","two-step-trial","153","423528","0.0-154.0-0.0","","","","","[0,1]","0","0","293","1","0","[0,1]","1","1","400","1","[""#955db9"",""#48a782""]","[""#5f6f81"",""#7f5d5d""]","[1280,720]","1","149","[0.736,0.271,0.496,0.399]","3","0","false","","",""
"","","","","","two-step-trial","154","426294","0.0-155.0-0.0","","","","","[0,1]","0","0","428","1","0","[0,1]","1","1","330","0","[""#955db9"",""#48a782""]","[""#5f6f81"",""#7f5d5d""]","[1280,720]","1","150","[0.727,0.278,0.471,0.409]","3","0","false","","",""
"","","","","","two-step-instructions","155","436211","0.0-156.0","9908","","","[{""page_index"":0,""viewing_time"":9907}]","","","","","","","","","","","","","","","","","","","","","","",""
"","","","","","two-step-comprehension","156","446198","0.0-157.0","9979","","","","","","","","","","","","","","","","","","","","","","","","[""purple"",""green""]","0","[{""event"":""focus"",""trial"":0,""time"":1},{""event"":""fullscreenenter"",""trial"":1,""time"":4196}]"
