"success","timeout","failed_images","failed_audio","failed_video","trial_type","trial_index","time_elapsed","internal_node_id","rt","stimulus","response","view_history","responses","num_errors","quiz","phase","state_2_ids","state_2_key","state_2_choice","state_2_rt","outcome","screen_resolution","minimum_resolution","state_1_ids","state_1_key","state_1_choice","state_1_rt","transition","state","rocket_colors","planet_colors","trial","missing","drifts","drift_ix","browser_interactions","interactions"
"true","false","[]","[]","[]","preload","0","147","0.0-0.0","","","","","","","","","","","","","","","","","","","","","","","","","","","","",""
"true","","","","","fullscreen","1","4537","0.0-1.0","","","","","","","","","","","","","","","","","","","","","","","","","","","","",""
"","","","","","html-keyboard-response","2","10140","0.0-2.0","5601","<p>You are starting a demo of the <b>two-step task.</b></p><p>To see the instructions, press the ""1"" key. To skip them, press the ""2"" key.</p>","1","","","","","","","","","","","","","","","","","","","","","","","","","",""
"","","","","","two-step-instructions","3","31417","0.0-3.0-0.0-1.0","21273","","","[{""page_index"":0,""viewing_time"":3666},{""page_index"":1,""viewing_time"":2386},{""page_index"":2,""viewing_time"":1489},{""page_index"":3,""viewing_time"":1637},{""page_index"":4,""viewing_time"":1940},{""page_index"":5,""viewing_time"":1117},{""page_index"":6,""viewing_time"":967},{""page_index"":7,""viewing_time"":2341},{""page_index"":8,""viewing_time"":1866},{""page_index"":9,""viewing_time"":2657},{""page_index"":10,""viewing_time"":1207}]","","","","","","","","","","","","","","","","","","","","","","","","",""
"","","","","","two-step-comprehension","4","39427","0.0-3.0-0.0-2.0","8005","","","","[""left/right arrow keys"",""True"",""True""]","0","1","","","","","","","","","","","","","","","","","","","","","",""
"","","","","","two-step-instructions","5","42531","0.0-3.0-1.0-0.0-0.0","3100","","","[{""page_index"":0,""viewing_time"":3100}]","","","","instructions_1b","","","","","","","","","","","","","","","","","","","","",""
"","","","","","alien-practice","6","46413","0.0-3.0-1.0-1.0-0.0","","","","","","","","","[0,1]","0","0","1655","0","[1280,720]","1","","","","","","","","","","","","","",""
"","","","","","alien-practice","7","49101","0.0-3.0-1.0-2.0-0.0","","","","","","","","","[0,1]","1","1","466","0","[1280,720]","1","","","","","","","","","","","","","",""
"","","","","","alien-practice","8","51825","0.0-3.0-1.0-3.0-0.0","","","","","","","","","[0,1]","0","0","504","0","[1280,720]","1","","","","","","","","","","","","","",""
"","","","","","alien-practice","9","54383","0.0-3.0-1.0-4.0-0.0","","","","","","","","","[0,1]","1","1","338","1","[1280,720]","1","","","","","","","","","","","","","",""
"","","","","","alien-practice","10","58558","0.0-3.0-1.0-5.0-0.0","","","","","","","","","[0,1]","1","1","1951","1","[1280,720]","1","","","","","","","","","","","","","",""
"","","","","","alien-practice","11","61078","0.0-3.0-1.0-6.0-0.0","","","","","","","","","[0,1]","1","1","303","1","[1280,720]","1","","","","","","","","","","","","","",""
"","","","","","two-step-instructions","12","76981","0.0-3.0-2.0-1.0","15897","","","[{""page_index"":0,""viewing_time"":3586},{""page_index"":1,""viewing_time"":2344},{""page_index"":2,""viewing_time"":2187},{""page_index"":3,""viewing_time"":2857},{""page_index"":4,""viewing_time"":215},{""page_index"":5,""viewing_time"":876},{""page_index"":4,""viewing_time"":2075},{""page_index"":5,""viewing_time"":1756}]","","","","","","","","","","","","","","","","","","","","","","","","",""
"","","","","","two-step-comprehension","13","82533","0.0-3.0-2.0-2.0","5543","","","","[""left/right arrow keys"",""False"",""True""]","0","2","","","","","","","","","","","","","","","","","","","","","",""
"","","","","","two-step-instructions","14","91124","0.0-3.0-3.0-0.0","8589","","","[{""page_index"":0,""viewing_time"":4404},{""page_index"":1,""viewing_time"":1662},{""page_index"":2,""viewing_time"":2522}]","","","","","","","","","","","","","","","","","","","","","","","","",""
"","","","","","two-step-trial","15","95836","0.0-3.0-3.0-1.0-0.0","","","","","","","","","[0,1]","0","0","1310","1","[1280,720]","1","[0,1]","0","0","1389","1","0","[""#486ea7"",""#a75248""]","[""#5b7c65"",""#706081""]","0","false","","","",""
"","","","","","two-step-trial","16","100399","0.0-3.0-3.0-1.0-0.1","","","","","","","","","[0,1]","0","0","541","0","[1280,720]","1","[0,1]","0","0","1990","1","0","[""#486ea7"",""#a75248""]","[""#5b7c65"",""#706081""]","0","false","","","",""
"","","","","","two-step-trial","17","104224","0.0-3.0-3.0-1.0-0.2","","","","","","","","","[2,3]","0","2","372","0","[1280,720]","1","[0,1]","0","0","1434","0","1","[""#486ea7"",""#a75248""]","[""#5b7c65"",""#706081""]","0","false","","","",""
"","","","","","two-step-trial","18","108563","0.0-3.0-3.0-1.0-0.3","","","","","","","","","[2,3]","1","3","1130","1","[1280,720]","1","[0,1]","0","0","1184","0","1","[""#486ea7"",""#a75248""]","[""#5b7c65"",""#706081""]","0","false","","","",""
"","","","","","two-step-trial","19","111462","0.0-3.0-3.0-1.0-0.4","","","","","","","","","[0,1]","0","0","452","0","[1280,720]","1","[0,1]","0","0","414","1","0","[""#486ea7"",""#a75248""]","[""#5b7c65"",""#706081""]","0","false","","","",""
"","","","","","two-step-trial","20","115002","0.0-3.0-3.0-1.0-0.5","","","","","","","","","[0,1]","0","0","844","0","[1280,720]","1","[0,1]","0","0","671","1","0","[""#486ea7"",""#a75248""]","[""#5b7c65"",""#706081""]","0","false","","","",""
"","","","","","two-step-trial","21","118243","0.0-3.0-3.0-1.0-0.6","","","","","","","","","[0,1]","1","1","559","0","[1280,720]","1","[0,1]","0","0","666","1","0","[""#486ea7"",""#a75248""]","[""#5b7c65"",""#706081""]","0","false","","","",""
"","","","","","two-step-trial","22","121058","0.0-3.0-3.0-1.0-0.7","","","","","","","","","[0,1]","1","1","456","0","[1280,720]","1","[0,1]","0","0","345","1","0","[""#486ea7"",""#a75248""]","[""#5b7c65"",""#706081""]","0","false","","","",""
"","","","","","two-step-trial","23","123915","0.0-3.0-3.0-1.0-0.8","","","","","","","","","[2,3]","0","2","410","1","[1280,720]","1","[0,1]","1","1","408","1","1","[""#486ea7"",""#a75248""]","[""#5b7c65"",""#706081""]","0","false","","","",""
"","","","","","two-step-trial","24","126760","0.0-3.0-3.0-1.0-0.9","","","","","","","","","[2,3]","0","2","464","0","[1280,720]","1","[0,1]","1","1","352","1","1","[""#486ea7"",""#a75248""]","[""#5b7c65"",""#706081""]","0","false","","","",""
"","","","","","two-step-instructions","25","149066","0.0-3.0-4.0-1.0","22301","","","[{""page_index"":0,""viewing_time"":3670},{""page_index"":1,""viewing_time"":1881},{""page_index"":2,""viewing_time"":1088},{""page_index"":3,""viewing_time"":1997},{""page_index"":4,""viewing_time"":6864},{""page_index"":5,""viewing_time"":4212},{""page_index"":6,""viewing_time"":2589}]","","","","","","","","","","","","","","","","","","","","","","","","",""
"","","","","","two-step-comprehension","26","155961","0.0-3.0-4.0-2.0","6890","","","","[""True"",""False"",""True""]","0","3","","","","","","","","","","","","","","","","","","","","","",""
"","","","","","two-step-instructions","27","161886","0.0-4.0","5921","","","[{""page_index"":0,""viewing_time"":1547},{""page_index"":1,""viewing_time"":2372},{""page_index"":2,""viewing_time"":2001}]","","","","","","","","","","","","","","","","","","","","","","","","",""
"","","","","","two-step-trial","28","165904","0.0-5.0-0.0","","","","","","","","","[2,3]","0","2","880","0","[1280,720]","1","[0,1]","0","0","1117","0","1","[""#48a782"",""#955db9""]","[""#5f6f81"",""#7f5d5d""]","1","false","[0.412,0.317,0.453,0.743]","2","0",""
"","","","","","two-step-trial","29","169400","0.0-6.0-0.0","","","","","","","","","[0,1]","0","0","1119","0","[1280,720]","1","[0,1]","0","0","353","1","0","[""#48a782"",""#955db9""]","[""#5f6f81"",""#7f5d5d""]","2","false","[0.402,0.305,0.461,0.702]","2","0",""
"","","","","","two-step-trial","30","172910","0.0-7.0-0.0","","","","","","","","","[0,1]","1","1","754","0","[1280,720]","1","[0,1]","0","0","736","1","0","[""#48a782"",""#955db9""]","[""#5f6f81"",""#7f5d5d""]","3","false","[0.373,0.327,0.445,0.732]","2","0",""
"","","","","","two-step-trial","31","176021","0.0-8.0-0.0","","","","","","","","","[0,1]","1","1","640","0","[1280,720]","1","[0,1]","0","0","439","1","0","[""#48a782"",""#955db9""]","[""#5f6f81"",""#7f5d5d""]","4","false","[0.381,0.303,0.418,0.736]","2","0",""
"","","","","","two-step-trial","32","179278","0.0-9.0-0.0","","","","","","","","","[2,3]","1","3","424","1","[1280,720]","1","[0,1]","1","1","814","1","1","[""#48a782"",""#955db9""]","[""#5f6f81"",""#7f5d5d""]","5","false","[0.366,0.363,0.401,0.709]","2","0",""
"","","","","","two-step-trial","33","182104","0.0-10.0-0.0","","","","","","","","","[2,3]","1","3","443","0","[1280,720]","1","[0,1]","1","1","354","1","1","[""#48a782"",""#955db9""]","[""#5f6f81"",""#7f5d5d""]","6","false","[0.393,0.368,0.383,0.711]","2","0",""
"","","","","","two-step-trial","34","184812","0.0-11.0-0.0","","","","","","","","","[2,3]","1","3","360","1","[1280,720]","1","[0,1]","1","1","333","1","1","[""#48a782"",""#955db9""]","[""#5f6f81"",""#7f5d5d""]","7","false","[0.4,0.405,0.425,0.678]","2","0",""
"","","","","","two-step-trial","35","187587","0.0-12.0-0.0","","","","","","","","","[2,3]","1","3","378","0","[1280,720]","1","[0,1]","1","1","366","1","1","[""#48a782"",""#955db9""]","[""#5f6f81"",""#7f5d5d""]","8","false","[0.383,0.388,0.415,0.699]","2","0",""
"","","","","","two-step-trial","36","190443","0.0-13.0-0.0","","","","","","","","","[2,3]","0","2","529","0","[1280,720]","1","[0,1]","1","1","303","1","1","[""#48a782"",""#955db9""]","[""#5f6f81"",""#7f5d5d""]","9","false","[0.347,0.439,0.405,0.713]","2","0",""
"","","","","","two-step-trial","37","193118","0.0-14.0-0.0","","","","","","","","","[2,3]","1","3","372","1","[1280,720]","1","[0,1]","1","1","283","1","1","[""#48a782"",""#955db9""]","[""#5f6f81"",""#7f5d5d""]","10","false","[0.367,0.459,0.46,0.731]","2","0",""
"","","","","","two-step-trial","38","195841","0.0-15.0-0.0","","","","","","","","","[2,3]","1","3","374","0","[1280,720]","1","[0,1]","1","1","338","1","1","[""#48a782"",""#955db9""]","[""#5f6f81"",""#7f5d5d""]","11","false","[0.397,0.451,0.461,0.701]","2","0",""
"","","","","","two-step-trial","39","199357","0.0-16.0-0.0","","","","","","","","","[0,1]","1","1","325","0","[1280,720]","1","[0,1]","1","1","1180","0","0","[""#48a782"",""#955db9""]","[""#5f6f81"",""#7f5d5d""]","12","false","[0.357,0.426,0.459,0.707]","2","0",""
"","","","","","two-step-trial","40","202662","0.0-17.0-0.0","","","","","","","","","[2,3]","1","3","830","0","[1280,720]","1","[0,1]","1","1","454","1","1","[""#48a782"",""#955db9""]","[""#5f6f81"",""#7f5d5d""]","13","false","[0.337,0.398,0.428,0.721]","2","0",""
"","","","","","two-step-trial","41","205312","0.0-18.0-0.0","","","","","","","","","[0,1]","0","0","361","0","[1280,720]","1","[0,1]","0","0","258","1","0","[""#48a782"",""#955db9""]","[""#5f6f81"",""#7f5d5d""]","14","false","[0.283,0.408,0.384,0.719]","2","0",""
"","","","","","two-step-trial","42","208110","0.0-19.0-0.0","","","","","","","","","[2,3]","0","2","332","0","[1280,720]","1","[0,1]","0","0","430","0","1","[""#48a782"",""#955db9""]","[""#5f6f81"",""#7f5d5d""]","15","false","[0.295,0.37,0.375,0.738]","2","0",""
"","","","","","two-step-trial","43","211787","0.0-20.0-0.0","","","","","","","","","[0,1]","0","0","997","1","[1280,720]","1","[0,1]","0","0","653","1","0","[""#48a782"",""#955db9""]","[""#5f6f81"",""#7f5d5d""]","16","false","[0.305,0.343,0.325,0.713]","2","0",""
"","","","","","two-step-trial","44","214612","0.0-21.0-0.0","","","","","","","","","[2,3]","1","3","519","0","[1280,720]","1","[0,1]","1","1","292","1","1","[""#48a782"",""#955db9""]","[""#5f6f81"",""#7f5d5d""]","17","false","[0.305,0.313,0.334,0.705]","2","0",""
"","","","","","two-step-trial","45","217578","0.0-22.0-0.0","","","","","","","","","[2,3]","1","3","657","0","[1280,720]","1","[0,1]","0","0","286","0","1","[""#48a782"",""#955db9""]","[""#5f6f81"",""#7f5d5d""]","18","false","[0.316,0.314,0.353,0.728]","2","0",""
"","","","","","two-step-trial","46","220350","0.0-23.0-0.0","","","","","","","","","[0,1]","1","1","461","0","[1280,720]","1","[0,1]","0","0","287","1","0","[""#48a782"",""#955db9""]","[""#5f6f81"",""#7f5d5d""]","19","false","[0.317,0.335,0.368,0.745]","2","0",""
"","","","","","two-step-trial","47","223414","0.0-24.0-0.0","","","","","","","","","[0,1]","0","0","413","0","[1280,720]","1","[0,1]","0","0","624","1","0","[""#48a782"",""#955db9""]","[""#5f6f81"",""#7f5d5d""]","20","false","[0.307,0.313,0.421,0.737]","2","0",""
"","","","","","two-step-trial","48","226074","0.0-25.0-0.0","","","","","","","","","[0,1]","0","0","338","1","[1280,720]","1","[0,1]","0","0","310","1","0","[""#48a782"",""#955db9""]","[""#5f6f81"",""#7f5d5d""]","21","false","[0.31,0.305,0.401,0.745]","2","0",""
"","","","","","two-step-trial","49","228776","0.0-26.0-0.0","","","","","","","","","[2,3]","1","3","367","1","[1280,720]","1","[0,1]","1","1","312","1","1","[""#48a782"",""#955db9""]","[""#5f6f81"",""#7f5d5d""]","22","false","[0.326,0.31,0.391,0.735]","2","0",""
"","","","","","two-step-trial","50","231544","0.0-27.0-0.0","","","","","","","","","[0,1]","0","0","468","1","[1280,720]","1","[0,1]","0","0","266","1","0","[""#48a782"",""#955db9""]","[""#5f6f81"",""#7f5d5d""]","23","false","[0.331,0.302,0.379,0.741]","2","0",""
"","","","","","two-step-trial","51","234279","0.0-28.0-0.0","","","","","","","","","[2,3]","1","3","384","1","[1280,720]","1","[0,1]","1","1","324","1","1","[""#48a782"",""#955db9""]","[""#5f6f81"",""#7f5d5d""]","24","false","[0.358,0.323,0.393,0.738]","2","0",""
"","","","","","two-step-trial","52","236903","0.0-29.0-0.0","","","","","","","","","[2,3]","0","2","286","0","[1280,720]","1","[0,1]","0","0","304","0","1","[""#48a782"",""#955db9""]","[""#5f6f81"",""#7f5d5d""]","25","false","[0.342,0.299,0.368,0.724]","2","0",""
"","","","","","two-step-trial","53","239693","0.0-30.0-0.0","","","","","","","","","[2,3]","1","3","392","0","[1280,720]","1","[0,1]","1","1","369","1","1","[""#48a782"",""#955db9""]","[""#5f6f81"",""#7f5d5d""]","26","false","[0.362,0.294,0.373,0.738]","2","0",""
"","","","","","two-step-trial","54","242255","0.0-31.0-0.0","","","","","","","","","[0,1]","0","0","542","0","[1280,720]","1","[0,1]","0","0","3","1","0","[""#48a782"",""#955db9""]","[""#5f6f81"",""#7f5d5d""]","27","false","[0.332,0.286,0.389,0.683]","2","0",""
"","","","","","two-step-trial","55","245025","0.0-32.0-0.0","","","","","","","","","[0,1]","0","0","439","0","[1280,720]","1","[0,1]","0","0","309","1","0","[""#48a782"",""#955db9""]","[""#5f6f81"",""#7f5d5d""]","28","false","[0.34,0.303,0.383,0.689]","2","0",""
"","","","","","two-step-trial","56","247656","0.0-33.0-0.0","","","","","","","","","[0,1]","0","0","337","1","[1280,720]","1","[0,1]","0","0","275","1","0","[""#48a782"",""#955db9""]","[""#5f6f81"",""#7f5d5d""]","29","false","[0.317,0.302,0.385,0.679]","2","0",""
"","","","","","two-step-trial","57","250599","0.0-34.0-0.0","","","","","","","","","[0,1]","0","0","656","1","[1280,720]","1","[0,1]","1","1","268","0","0","[""#48a782"",""#955db9""]","[""#5f6f81"",""#7f5d5d""]","30","false","[0.353,0.346,0.414,0.681]","2","0",""
"","","","","","two-step-trial","58","253391","0.0-35.0-0.0","","","","","","","","","[2,3]","1","3","481","1","[1280,720]","1","[0,1]","0","0","283","0","1","[""#48a782"",""#955db9""]","[""#5f6f81"",""#7f5d5d""]","31","false","[0.325,0.331,0.414,0.647]","2","0",""
"","","","","","two-step-trial","59","256073","0.0-36.0-0.0","","","","","","","","","[2,3]","1","3","579","1","[1280,720]","1","[0,1]","1","1","72","1","1","[""#48a782"",""#955db9""]","[""#5f6f81"",""#7f5d5d""]","32","false","[0.328,0.33,0.383,0.663]","2","0",""
"","","","","","two-step-trial","60","258723","0.0-37.0-0.0","","","","","","","","","[0,1]","1","1","344","1","[1280,720]","1","[0,1]","1","1","291","0","0","[""#48a782"",""#955db9""]","[""#5f6f81"",""#7f5d5d""]","33","false","[0.322,0.332,0.362,0.633]","2","0",""
"","","","","","two-step-trial","61","261439","0.0-38.0-0.0","","","","","","","","","[2,3]","1","3","385","1","[1280,720]","1","[0,1]","1","1","302","1","1","[""#48a782"",""#955db9""]","[""#5f6f81"",""#7f5d5d""]","34","false","[0.322,0.307,0.363,0.617]","2","0",""
"","","","","","two-step-trial","62","264169","0.0-39.0-0.0","","","","","","","","","[0,1]","1","1","375","0","[1280,720]","1","[0,1]","1","1","337","0","0","[""#48a782"",""#955db9""]","[""#5f6f81"",""#7f5d5d""]","35","false","[0.297,0.336,0.333,0.65]","2","0",""
"","","","","","two-step-trial","63","267114","0.0-40.0-0.0","","","","","","","","","[0,1]","0","0","515","0","[1280,720]","1","[0,1]","0","0","413","1","0","[""#48a782"",""#955db9""]","[""#5f6f81"",""#7f5d5d""]","36","false","[0.326,0.343,0.331,0.633]","2","0",""
"","","","","","two-step-trial","64","269780","0.0-41.0-0.0","","","","","","","","","[0,1]","0","0","377","1","[1280,720]","1","[0,1]","0","0","270","1","0","[""#48a782"",""#955db9""]","[""#5f6f81"",""#7f5d5d""]","37","false","[0.318,0.324,0.327,0.612]","2","0",""
"","","","","","two-step-trial","65","272476","0.0-42.0-0.0","","","","","","","","","[2,3]","0","2","316","1","[1280,720]","1","[0,1]","0","0","357","0","1","[""#48a782"",""#955db9""]","[""#5f6f81"",""#7f5d5d""]","38","false","[0.304,0.324,0.319,0.591]","2","0",""
"","","","","","two-step-trial","66","275225","0.0-43.0-0.0","","","","","","","","","[0,1]","0","0","395","0","[1280,720]","1","[0,1]","0","0","325","1","0","[""#48a782"",""#955db9""]","[""#5f6f81"",""#7f5d5d""]","39","false","[0.283,0.362,0.351,0.561]","2","0",""
"","","","","","two-step-trial","67","277873","0.0-44.0-0.0","","","","","","","","","[2,3]","1","3","340","1","[1280,720]","1","[0,1]","1","1","279","1","1","[""#48a782"",""#955db9""]","[""#5f6f81"",""#7f5d5d""]","40","false","[0.295,0.387,0.331,0.546]","2","0",""
"","","","","","two-step-trial","68","280632","0.0-45.0-0.0","","","","","","","","","[0,1]","0","0","418","1","[1280,720]","1","[0,1]","0","0","334","1","0","[""#48a782"",""#955db9""]","[""#5f6f81"",""#7f5d5d""]","41","false","[0.293,0.385,0.33,0.584]","2","0",""
"","","","","","two-step-trial","69","283134","0.0-46.0-0.0","","","","","","","","","[2,3]","1","3","370","1","[1280,720]","1","[0,1]","1","1","102","1","1","[""#48a782"",""#955db9""]","[""#5f6f81"",""#7f5d5d""]","42","false","[0.304,0.383,0.318,0.562]","2","0",""
"","","","","","two-step-trial","70","285889","0.0-47.0-0.0","","","","","","","","","[2,3]","0","2","476","1","[1280,720]","1","[0,1]","0","0","256","0","1","[""#48a782"",""#955db9""]","[""#5f6f81"",""#7f5d5d""]","43","false","[0.318,0.398,0.315,0.576]","2","0",""
"","","","","","two-step-trial","71","288691","0.0-48.0-0.0","","","","","","","","","[0,1]","0","0","503","1","[1280,720]","1","[0,1]","0","0","279","1","0","[""#48a782"",""#955db9""]","[""#5f6f81"",""#7f5d5d""]","44","false","[0.321,0.371,0.348,0.616]","2","0",""
"","","","","","two-step-trial","72","291277","0.0-49.0-0.0","","","","","","","","","[2,3]","1","3","266","1","[1280,720]","1","[0,1]","1","1","296","1","1","[""#48a782"",""#955db9""]","[""#5f6f81"",""#7f5d5d""]","45","false","[0.319,0.418,0.367,0.598]","2","0",""
"","","","","","two-step-trial","73","293895","0.0-50.0-0.0","","","","","","","","","[0,1]","0","0","305","0","[1280,720]","1","[0,1]","0","0","288","1","0","[""#48a782"",""#955db9""]","[""#5f6f81"",""#7f5d5d""]","46","false","[0.326,0.44,0.366,0.588]","2","0",""
"","","","","","two-step-trial","74","296626","0.0-51.0-0.0","","","","","","","","","[0,1]","1","1","295","0","[1280,720]","1","[0,1]","1","1","421","0","0","[""#48a782"",""#955db9""]","[""#5f6f81"",""#7f5d5d""]","47","false","[0.315,0.46,0.378,0.597]","2","0",""
"","","","","","two-step-trial","75","299636","0.0-52.0-0.0","","","","","","","","","[2,3]","1","3","662","1","[1280,720]","1","[0,1]","1","1","330","1","1","[""#48a782"",""#955db9""]","[""#5f6f81"",""#7f5d5d""]","48","false","[0.281,0.476,0.36,0.571]","2","0",""
"","","","","","two-step-trial","76","302364","0.0-53.0-0.0","","","","","","","","","[0,1]","0","0","443","0","[1280,720]","1","[0,1]","0","0","263","1","0","[""#48a782"",""#955db9""]","[""#5f6f81"",""#7f5d5d""]","49","false","[0.254,0.439,0.383,0.579]","2","0",""
"","","","","","two-step-trial","77","305264","0.0-54.0-0.0","","","","","","","","","[0,1]","0","0","413","0","[1280,720]","1","[0,1]","0","0","466","1","0","[""#48a782"",""#955db9""]","[""#5f6f81"",""#7f5d5d""]","50","false","[0.303,0.471,0.392,0.592]","2","0",""
"","","","","","two-step-trial","78","307819","0.0-55.0-0.0","","","","","","","","","[2,3]","0","2","256","1","[1280,720]","1","[0,1]","0","0","280","0","1","[""#48a782"",""#955db9""]","[""#5f6f81"",""#7f5d5d""]","51","false","[0.274,0.41,0.377,0.587]","2","0",""
"","","","","","two-step-trial","79","311026","0.0-56.0-0.0","","","","","","","","","[0,1]","0","0","534","0","[1280,720]","1","[0,1]","0","0","647","1","0","[""#48a782"",""#955db9""]","[""#5f6f81"",""#7f5d5d""]","52","false","[0.29,0.413,0.363,0.572]","2","0",""
"","","","","","two-step-trial","80","313575","0.0-57.0-0.0","","","","","","","","","[2,3]","1","3","351","1","[1280,720]","1","[0,1]","1","1","184","1","1","[""#48a782"",""#955db9""]","[""#5f6f81"",""#7f5d5d""]","53","false","[0.292,0.425,0.318,0.522]","2","0",""
"","","","","","two-step-trial","81","316187","0.0-58.0-0.0","","","","","","","","","[0,1]","1","1","324","0","[1280,720]","1","[0,1]","1","1","265","0","0","[""#48a782"",""#955db9""]","[""#5f6f81"",""#7f5d5d""]","54","false","[0.284,0.449,0.332,0.552]","2","0",""
"","","","","","two-step-trial","82","319156","0.0-59.0-0.0","","","","","","","","","[2,3]","1","3","539","0","[1280,720]","1","[0,1]","1","1","415","1","1","[""#48a782"",""#955db9""]","[""#5f6f81"",""#7f5d5d""]","55","false","[0.253,0.41,0.344,0.579]","2","0",""
"","","","","","two-step-trial","83","322193","0.0-60.0-0.0","","","","","","","","","[2,3]","1","3","829","1","[1280,720]","1","[0,1]","1","1","190","1","1","[""#48a782"",""#955db9""]","[""#5f6f81"",""#7f5d5d""]","56","false","[0.277,0.408,0.373,0.526]","2","0",""
"","","","","","two-step-trial","84","324902","0.0-61.0-0.0","","","","","","","","","[2,3]","1","3","423","0","[1280,720]","1","[0,1]","1","1","275","1","1","[""#48a782"",""#955db9""]","[""#5f6f81"",""#7f5d5d""]","57","false","[0.252,0.418,0.356,0.521]","2","0",""
"","","","","","two-step-trial","85","327534","0.0-62.0-0.0","","","","","","","","","[2,3]","1","3","323","1","[1280,720]","1","[0,1]","1","1","285","1","1","[""#48a782"",""#955db9""]","[""#5f6f81"",""#7f5d5d""]","58","false","[0.282,0.462,0.395,0.504]","2","0",""
"","","","","","two-step-trial","86","330299","0.0-63.0-0.0","","","","","","","","","[2,3]","1","3","434","1","[1280,720]","1","[0,1]","1","1","311","1","1","[""#48a782"",""#955db9""]","[""#5f6f81"",""#7f5d5d""]","59","false","[0.297,0.475,0.39,0.498]","2","0",""
"","","","","","two-step-trial","87","333004","0.0-64.0-0.0","","","","","","","","","[2,3]","1","3","425","1","[1280,720]","1","[0,1]","1","1","264","1","1","[""#48a782"",""#955db9""]","[""#5f6f81"",""#7f5d5d""]","60","false","[0.295,0.463,0.364,0.52]","2","0",""
"","","","","","two-step-trial","88","335773","0.0-65.0-0.0","","","","","","","","","[2,3]","1","3","457","0","[1280,720]","1","[0,1]","1","1","292","1","1","[""#48a782"",""#955db9""]","[""#5f6f81"",""#7f5d5d""]","61","false","[0.295,0.433,0.355,0.543]","2","0",""
"","","","","","two-step-trial","89","338719","0.0-66.0-0.0","","","","","","","","","[2,3]","1","3","644","1","[1280,720]","1","[0,1]","0","0","269","0","1","[""#48a782"",""#955db9""]","[""#5f6f81"",""#7f5d5d""]","62","false","[0.307,0.43,0.353,0.543]","2","0",""
"","","","","","two-step-trial","90","341216","0.0-67.0-0.0","","","","","","","","","[0,1]","0","0","482","0","[1280,720]","1","[0,1]","0","0","9","1","0","[""#48a782"",""#955db9""]","[""#5f6f81"",""#7f5d5d""]","63","false","[0.353,0.426,0.367,0.529]","2","0",""
"","","","","","two-step-trial","91","343948","0.0-68.0-0.0","","","","","","","","","[2,3]","0","2","371","0","[1280,720]","1","[0,1]","0","0","347","0","1","[""#48a782"",""#955db9""]","[""#5f6f81"",""#7f5d5d""]","64","false","[0.37,0.432,0.33,0.47]","2","0",""
"","","","","","two-step-trial","92","346860","0.0-69.0-0.0","","","","","","","","","[2,3]","1","3","580","1","[1280,720]","1","[0,1]","0","0","321","0","1","[""#48a782"",""#955db9""]","[""#5f6f81"",""#7f5d5d""]","65","false","[0.377,0.393,0.348,0.501]","2","0",""
"","","","","","two-step-trial","93","349775","0.0-70.0-0.0","","","","","","","","","[2,3]","1","3","621","0","[1280,720]","1","[0,1]","0","0","272","0","1","[""#48a782"",""#955db9""]","[""#5f6f81"",""#7f5d5d""]","66","false","[0.345,0.371,0.258,0.459]","2","0",""
"","","","","","two-step-trial","94","352526","0.0-71.0-0.0","","","","","","","","","[0,1]","1","1","452","0","[1280,720]","1","[0,1]","0","0","279","1","0","[""#48a782"",""#955db9""]","[""#5f6f81"",""#7f5d5d""]","67","false","[0.332,0.355,0.256,0.426]","2","0",""
"","","","","","two-step-trial","95","355456","0.0-72.0-0.0","","","","","","","","","[0,1]","0","0","600","0","[1280,720]","1","[0,1]","0","0","310","1","0","[""#48a782"",""#955db9""]","[""#5f6f81"",""#7f5d5d""]","68","false","[0.331,0.398,0.311,0.426]","2","0",""
"","","","","","two-step-trial","96","358543","0.0-73.0-0.0","","","","","","","","","[2,3]","1","3","659","0","[1280,720]","1","[0,1]","0","0","405","0","1","[""#48a782"",""#955db9""]","[""#5f6f81"",""#7f5d5d""]","69","false","[0.325,0.426,0.326,0.384]","2","0",""
"","","","","","two-step-trial","97","361262","0.0-74.0-0.0","","","","","","","","","[0,1]","1","1","345","0","[1280,720]","1","[0,1]","1","1","359","0","0","[""#48a782"",""#955db9""]","[""#5f6f81"",""#7f5d5d""]","70","false","[0.293,0.475,0.305,0.375]","2","0",""
"","","","","","two-step-trial","98","364362","0.0-75.0-0.0","","","","","","","","","[2,3]","1","3","703","0","[1280,720]","1","[0,1]","1","1","373","1","1","[""#48a782"",""#955db9""]","[""#5f6f81"",""#7f5d5d""]","71","false","[0.268,0.51,0.303,0.365]","2","0",""
"","","","","","two-step-trial","99","367410","0.0-76.0-0.0","","","","","","","","","[2,3]","1","3","635","0","[1280,720]","1","[0,1]","1","1","393","1","1","[""#48a782"",""#955db9""]","[""#5f6f81"",""#7f5d5d""]","72","false","[0.294,0.507,0.326,0.359]","2","0",""
"","","","","","two-step-trial","100","370417","0.0-77.0-0.0","","","","","","","","","[0,1]","0","0","680","0","[1280,720]","1","[0,1]","1","1","313","0","0","[""#48a782"",""#955db9""]","[""#5f6f81"",""#7f5d5d""]","73","false","[0.296,0.541,0.313,0.367]","2","0",""
"","","","","","two-step-trial","101","373481","0.0-78.0-0.0","","","","","","","","","[0,1]","0","0","432","0","[1280,720]","1","[0,1]","0","0","612","1","0","[""#48a782"",""#955db9""]","[""#5f6f81"",""#7f5d5d""]","74","false","[0.282,0.491,0.339,0.374]","2","0",""
"","","","","","two-step-trial","102","376131","0.0-79.0-0.0","","","","","","","","","[0,1]","0","0","332","1","[1280,720]","1","[0,1]","0","0","288","1","0","[""#48a782"",""#955db9""]","[""#5f6f81"",""#7f5d5d""]","75","false","[0.336,0.513,0.333,0.367]","2","0",""
"","","","","","two-step-instructions","103","380912","0.0-80.0","4778","","","[{""page_index"":0,""viewing_time"":263},{""page_index"":1,""viewing_time"":4514}]","","","","","","","","","","","","","","","","","","","","","","","","",""
"","","","","","two-step-trial","104","384357","0.0-81.0-0.0","","","","","","","","","[0,1]","0","0","559","1","[1280,720]","1","[0,1]","0","0","865","1","0","[""#48a782"",""#955db9""]","[""#5f6f81"",""#7f5d5d""]","76","false","[0.344,0.538,0.274,0.339]","2","0",""
"","","","","","two-step-trial","105","386978","0.0-82.0-0.0","","","","","","","","","[0,1]","0","0","310","1","[1280,720]","1","[0,1]","0","0","285","1","0","[""#48a782"",""#955db9""]","[""#5f6f81"",""#7f5d5d""]","77","false","[0.322,0.54,0.262,0.343]","2","0",""
"","","","","","two-step-trial","106","390293","0.0-83.0-0.0","","","","","","","","","[2,3]","0","2","999","0","[1280,720]","1","[0,1]","0","0","287","0","1","[""#48a782"",""#955db9""]","[""#5f6f81"",""#7f5d5d""]","78","false","[0.351,0.561,0.265,0.342]","2","0",""
"","","","","","two-step-trial","107","393039","0.0-84.0-0.0","","","","","","","","","[0,1]","0","0","430","1","[1280,720]","1","[0,1]","0","0","294","1","0","[""#48a782"",""#955db9""]","[""#5f6f81"",""#7f5d5d""]","79","false","[0.335,0.543,0.286,0.35]","2","0",""
"","","","","","two-step-trial","108","395726","0.0-85.0-0.0","","","","","","","","","[0,1]","0","0","360","1","[1280,720]","1","[0,1]","0","0","315","1","0","[""#48a782"",""#955db9""]","[""#5f6f81"",""#7f5d5d""]","80","false","[0.328,0.536,0.289,0.405]","2","0",""
"","","","","","two-step-trial","109","398390","0.0-86.0-0.0","","","","","","","","","[0,1]","0","0","364","0","[1280,720]","1","[0,1]","0","0","284","1","0","[""#48a782"",""#955db9""]","[""#5f6f81"",""#7f5d5d""]","81","false","[0.286,0.534,0.265,0.391]","2","0",""
"","","","","","two-step-trial","110","401040","0.0-87.0-0.0","","","","","","","","","[2,3]","0","2","325","0","[1280,720]","1","[0,1]","0","0","302","0","1","[""#48a782"",""#955db9""]","[""#5f6f81"",""#7f5d5d""]","82","false","[0.307,0.553,0.256,0.373]","2","0",""
"","","","","","two-step-trial","111","403911","0.0-88.0-0.0","","","","","","","","","[2,3]","1","3","525","0","[1280,720]","1","[0,1]","0","0","340","0","1","[""#48a782"",""#955db9""]","[""#5f6f81"",""#7f5d5d""]","83","false","[0.306,0.564,0.273,0.38]","2","0",""
"","","","","","two-step-trial","112","406726","0.0-89.0-0.0","","","","","","","","","[2,3]","1","3","469","0","[1280,720]","1","[0,1]","0","0","324","0","1","[""#48a782"",""#955db9""]","[""#5f6f81"",""#7f5d5d""]","84","false","[0.263,0.564,0.275,0.397]","2","0",""
"","","","","","two-step-trial","113","409661","0.0-90.0-0.0","","","","","","","","","[2,3]","0","2","482","0","[1280,720]","1","[0,1]","0","0","434","0","1","[""#48a782"",""#955db9""]","[""#5f6f81"",""#7f5d5d""]","85","false","[0.295,0.592,0.3,0.406]","2","0",""
"","","","","","two-step-trial","114","412987","0.0-91.0-0.0","","","","","","","","","[0,1]","0","0","970","0","[1280,720]","1","[0,1]","0","0","327","1","0","[""#48a782"",""#955db9""]","[""#5f6f81"",""#7f5d5d""]","86","false","[0.266,0.571,0.324,0.417]","2","0",""
"","","","","","two-step-trial","115","415929","0.0-92.0-0.0","","","","","","","","","[0,1]","0","0","666","0","[1280,720]","1","[0,1]","0","0","256","1","0","[""#48a782"",""#955db9""]","[""#5f6f81"",""#7f5d5d""]","87","false","[0.25,0.532,0.345,0.39]","2","0",""
"","","","","","two-step-trial","116","418721","0.0-93.0-0.0","","","","","","","","","[0,1]","1","1","486","1","[1280,720]","1","[0,1]","0","0","286","1","0","[""#48a782"",""#955db9""]","[""#5f6f81"",""#7f5d5d""]","88","false","[0.258,0.529,0.341,0.378]","2","0",""
"","","","","","two-step-trial","117","421697","0.0-94.0-0.0","","","","","","","","","[0,1]","1","1","698","0","[1280,720]","1","[0,1]","0","0","268","1","0","[""#48a782"",""#955db9""]","[""#5f6f81"",""#7f5d5d""]","89","false","[0.266,0.533,0.306,0.41]","2","0",""
"","","","","","two-step-trial","118","424874","0.0-95.0-0.0","","","","","","","","","[0,1]","1","1","870","0","[1280,720]","1","[0,1]","1","1","276","0","0","[""#48a782"",""#955db9""]","[""#5f6f81"",""#7f5d5d""]","90","false","[0.254,0.554,0.297,0.382]","2","0",""
"","","","","","two-step-trial","119","427627","0.0-96.0-0.0","","","","","","","","","[2,3]","1","3","422","1","[1280,720]","1","[0,1]","1","1","316","1","1","[""#48a782"",""#955db9""]","[""#5f6f81"",""#7f5d5d""]","91","false","[0.265,0.543,0.313,0.38]","2","0",""
"","","","","","two-step-trial","120","430918","0.0-97.0-0.0","","","","","","","","","[0,1]","0","0","798","0","[1280,720]","1","[0,1]","1","1","465","0","0","[""#48a782"",""#955db9""]","[""#5f6f81"",""#7f5d5d""]","92","false","[0.259,0.54,0.279,0.363]","2","0",""
"","","","","","two-step-trial","121","433882","0.0-98.0-0.0","","","","","","","","","[0,1]","0","0","658","0","[1280,720]","1","[0,1]","1","1","275","0","0","[""#48a782"",""#955db9""]","[""#5f6f81"",""#7f5d5d""]","93","false","[0.251,0.565,0.296,0.35]","2","0",""
"","","","","","two-step-trial","122","436559","0.0-99.0-0.0","","","","","","","","","[2,3]","1","3","422","1","[1280,720]","1","[0,1]","1","1","234","1","1","[""#48a782"",""#955db9""]","[""#5f6f81"",""#7f5d5d""]","94","false","[0.276,0.543,0.275,0.322]","2","0",""
"","","","","","two-step-trial","123","439305","0.0-100.0-0.0","","","","","","","","","[0,1]","1","1","440","1","[1280,720]","1","[0,1]","1","1","284","0","0","[""#48a782"",""#955db9""]","[""#5f6f81"",""#7f5d5d""]","95","false","[0.317,0.539,0.285,0.291]","2","0",""
"","","","","","two-step-trial","124","442078","0.0-101.0-0.0","","","","","","","","","[2,3]","1","3","441","0","[1280,720]","1","[0,1]","1","1","315","1","1","[""#48a782"",""#955db9""]","[""#5f6f81"",""#7f5d5d""]","96","false","[0.325,0.583,0.251,0.276]","2","0",""
"","","","","","two-step-trial","125","444724","0.0-102.0-0.0","","","","","","","","","[2,3]","1","3","303","1","[1280,720]","1","[0,1]","1","1","316","1","1","[""#48a782"",""#955db9""]","[""#5f6f81"",""#7f5d5d""]","97","false","[0.352,0.597,0.278,0.336]","2","0",""
"","","","","","two-step-trial","126","447409","0.0-103.0-0.0","","","","","","","","","[2,3]","1","3","376","0","[1280,720]","1","[0,1]","1","1","289","1","1","[""#48a782"",""#955db9""]","[""#5f6f81"",""#7f5d5d""]","98","false","[0.369,0.601,0.316,0.324]","2","0",""
"","","","","","two-step-trial","127","449866","0.0-104.0-0.0","","","","","","","","","[2,3]","1","3","319","1","[1280,720]","1","[0,1]","1","1","120","1","1","[""#48a782"",""#955db9""]","[""#5f6f81"",""#7f5d5d""]","99","false","[0.338,0.574,0.29,0.307]","2","0",""
"","","","","","two-step-trial","128","452375","0.0-105.0-0.0","","","","","","","","","[2,3]","1","3","385","0","[1280,720]","1","[0,1]","1","1","99","1","1","[""#48a782"",""#955db9""]","[""#5f6f81"",""#7f5d5d""]","100","false","[0.348,0.567,0.294,0.264]","2","0",""
"","","","","","two-step-trial","129","455079","0.0-106.0-0.0","","","","","","","","","[2,3]","1","3","445","0","[1280,720]","1","[0,1]","1","1","237","1","1","[""#48a782"",""#955db9""]","[""#5f6f81"",""#7f5d5d""]","101","false","[0.332,0.536,0.335,0.261]","2","0",""
"","","","","","two-step-trial","130","457832","0.0-107.0-0.0","","","","","","","","","[2,3]","1","3","438","1","[1280,720]","1","[0,1]","1","1","291","1","1","[""#48a782"",""#955db9""]","[""#5f6f81"",""#7f5d5d""]","102","false","[0.331,0.521,0.359,0.268]","2","0",""
"","","","","","two-step-trial","131","460661","0.0-108.0-0.0","","","","","","","","","[2,3]","1","3","467","0","[1280,720]","1","[0,1]","1","1","349","1","1","[""#48a782"",""#955db9""]","[""#5f6f81"",""#7f5d5d""]","103","false","[0.317,0.518,0.371,0.309]","2","0",""
"","","","","","two-step-trial","132","463287","0.0-109.0-0.0","","","","","","","","","[0,1]","1","1","505","0","[1280,720]","1","[0,1]","1","1","95","0","0","[""#48a782"",""#955db9""]","[""#5f6f81"",""#7f5d5d""]","104","false","[0.334,0.493,0.341,0.296]","2","0",""
"","","","","","two-step-trial","133","466056","0.0-110.0-0.0","","","","","","","","","[0,1]","0","0","505","1","[1280,720]","1","[0,1]","1","1","237","0","0","[""#48a782"",""#955db9""]","[""#5f6f81"",""#7f5d5d""]","105","false","[0.349,0.494,0.34,0.27]","2","0",""
"","","","","","two-step-trial","134","468721","0.0-111.0-0.0","","","","","","","","","[0,1]","0","0","382","1","[1280,720]","1","[0,1]","1","1","266","0","0","[""#48a782"",""#955db9""]","[""#5f6f81"",""#7f5d5d""]","106","false","[0.302,0.497,0.307,0.282]","2","0",""
"","","","","","two-step-trial","135","471177","0.0-112.0-0.0","","","","","","","","","[2,3]","1","3","422","0","[1280,720]","1","[0,1]","1","1","18","1","1","[""#48a782"",""#955db9""]","[""#5f6f81"",""#7f5d5d""]","107","false","[0.336,0.523,0.294,0.315]","2","0",""
"","","","","","two-step-trial","136","474136","0.0-113.0-0.0","","","","","","","","","[0,1]","0","0","583","0","[1280,720]","1","[0,1]","1","1","351","0","0","[""#48a782"",""#955db9""]","[""#5f6f81"",""#7f5d5d""]","108","false","[0.381,0.482,0.317,0.324]","2","0",""
"","","","","","two-step-trial","137","476832","0.0-114.0-0.0","","","","","","","","","[0,1]","0","0","404","1","[1280,720]","1","[0,1]","0","0","271","1","0","[""#48a782"",""#955db9""]","[""#5f6f81"",""#7f5d5d""]","109","false","[0.342,0.505,0.32,0.33]","2","0",""
"","","","","","two-step-trial","138","479514","0.0-115.0-0.0","","","","","","","","","[0,1]","0","0","385","1","[1280,720]","1","[0,1]","0","0","278","1","0","[""#48a782"",""#955db9""]","[""#5f6f81"",""#7f5d5d""]","110","false","[0.337,0.526,0.318,0.349]","2","0",""
"","","","","","two-step-trial","139","482230","0.0-116.0-0.0","","","","","","","","","[0,1]","0","0","383","0","[1280,720]","1","[0,1]","0","0","312","1","0","[""#48a782"",""#955db9""]","[""#5f6f81"",""#7f5d5d""]","111","false","[0.374,0.551,0.269,0.35]","2","0",""
"","","","","","two-step-trial","140","484901","0.0-117.0-0.0","","","","","","","","","[2,3]","1","3","368","0","[1280,720]","1","[0,1]","0","0","287","0","1","[""#48a782"",""#955db9""]","[""#5f6f81"",""#7f5d5d""]","112","false","[0.355,0.517,0.255,0.331]","2","0",""
"","","","","","two-step-trial","141","487535","0.0-118.0-0.0","","","","","","","","","[0,1]","0","0","360","0","[1280,720]","1","[0,1]","0","0","256","1","0","[""#48a782"",""#955db9""]","[""#5f6f81"",""#7f5d5d""]","113","false","[0.331,0.507,0.283,0.271]","2","0",""
"","","","","","two-step-trial","142","490324","0.0-119.0-0.0","","","","","","","","","[0,1]","0","0","643","1","[1280,720]","1","[0,1]","0","0","128","1","0","[""#48a782"",""#955db9""]","[""#5f6f81"",""#7f5d5d""]","114","false","[0.326,0.467,0.284,0.267]","2","0",""
"","","","","","two-step-trial","143","493046","0.0-120.0-0.0","","","","","","","","","[2,3]","0","2","437","0","[1280,720]","1","[0,1]","0","0","266","0","1","[""#48a782"",""#955db9""]","[""#5f6f81"",""#7f5d5d""]","115","false","[0.313,0.494,0.291,0.251]","2","0",""
"","","","","","two-step-trial","144","495833","0.0-121.0-0.0","","","","","","","","","[2,3]","0","2","318","0","[1280,720]","1","[0,1]","0","0","450","0","1","[""#48a782"",""#955db9""]","[""#5f6f81"",""#7f5d5d""]","116","false","[0.319,0.494,0.296,0.273]","2","0",""
"","","","","","two-step-trial","145","498482","0.0-122.0-0.0","","","","","","","","","[0,1]","0","0","327","1","[1280,720]","1","[0,1]","0","0","296","1","0","[""#48a782"",""#955db9""]","[""#5f6f81"",""#7f5d5d""]","117","false","[0.297,0.492,0.312,0.277]","2","0",""
"","","","","","two-step-trial","146","501188","0.0-123.0-0.0","","","","","","","","","[2,3]","1","3","396","0","[1280,720]","1","[0,1]","0","0","299","0","1","[""#48a782"",""#955db9""]","[""#5f6f81"",""#7f5d5d""]","118","false","[0.288,0.513,0.36,0.275]","2","0",""
"","","","","","two-step-trial","147","504127","0.0-124.0-0.0","","","","","","","","","[0,1]","0","0","635","0","[1280,720]","1","[0,1]","0","0","279","1","0","[""#48a782"",""#955db9""]","[""#5f6f81"",""#7f5d5d""]","119","false","[0.304,0.552,0.392,0.266]","2","0",""
"","","","","","two-step-trial","148","506712","0.0-125.0-0.0","","","","","","","","","[2,3]","1","3","446","0","[1280,720]","1","[0,1]","0","0","125","0","1","[""#48a782"",""#955db9""]","[""#5f6f81"",""#7f5d5d""]","120","false","[0.295,0.538,0.367,0.253]","2","0",""
"","","","","","two-step-trial","149","509917","0.0-126.0-0.0","","","","","","","","","[0,1]","0","0","885","0","[1280,720]","1","[0,1]","0","0","296","1","0","[""#48a782"",""#955db9""]","[""#5f6f81"",""#7f5d5d""]","121","false","[0.268,0.49,0.389,0.267]","2","0",""
"","","","","","two-step-trial","150","512672","0.0-127.0-0.0","","","","","","","","","[2,3]","1","3","379","0","[1280,720]","1","[0,1]","1","1","352","1","1","[""#48a782"",""#955db9""]","[""#5f6f81"",""#7f5d5d""]","122","false","[0.292,0.548,0.366,0.262]","2","0",""
"","","","","","two-step-trial","151","515709","0.0-128.0-0.0","","","","","","","","","[0,1]","0","0","580","1","[1280,720]","1","[0,1]","1","1","441","0","0","[""#48a782"",""#955db9""]","[""#5f6f81"",""#7f5d5d""]","123","false","[0.287,0.579,0.38,0.276]","2","0",""
"","","","","","two-step-trial","152","518436","0.0-129.0-0.0","","","","","","","","","[0,1]","0","0","415","0","[1280,720]","1","[0,1]","0","0","299","1","0","[""#48a782"",""#955db9""]","[""#5f6f81"",""#7f5d5d""]","124","false","[0.296,0.64,0.405,0.262]","2","0",""
"","","","","","two-step-trial","153","521072","0.0-130.0-0.0","","","","","","","","","[0,1]","1","1","301","0","[1280,720]","1","[0,1]","0","0","326","1","0","[""#48a782"",""#955db9""]","[""#5f6f81"",""#7f5d5d""]","125","false","[0.25,0.637,0.448,0.25]","2","0",""
"","","","","","two-step-trial","154","523726","0.0-131.0-0.0","","","","","","","","","[0,1]","1","1","344","1","[1280,720]","1","[0,1]","0","0","288","1","0","[""#48a782"",""#955db9""]","[""#5f6f81"",""#7f5d5d""]","126","false","[0.255,0.666,0.447,0.257]","2","0",""
"","","","","","two-step-trial","155","526427","0.0-132.0-0.0","","","","","","","","","[2,3]","1","3","582","1","[1280,720]","1","[0,1]","0","0","100","0","1","[""#48a782"",""#955db9""]","[""#5f6f81"",""#7f5d5d""]","127","false","[0.281,0.695,0.433,0.272]","2","0",""
"","","","","","two-step-trial","156","529244","0.0-133.0-0.0","","","","","","","","","[2,3]","1","3","516","0","[1280,720]","1","[0,1]","0","0","274","0","1","[""#48a782"",""#955db9""]","[""#5f6f81"",""#7f5d5d""]","128","false","[0.277,0.667,0.42,0.278]","2","0",""
"","","","","","two-step-trial","157","531941","0.0-134.0-0.0","","","","","","","","","[0,1]","0","0","413","1","[1280,720]","1","[0,1]","0","0","275","1","0","[""#48a782"",""#955db9""]","[""#5f6f81"",""#7f5d5d""]","129","false","[0.318,0.661,0.46,0.294]","2","0",""
"","","","","","two-step-trial","158","535058","0.0-135.0-0.0","","","","","","","","","[2,3]","1","3","807","1","[1280,720]","1","[0,1]","0","0","290","0","1","[""#48a782"",""#955db9""]","[""#5f6f81"",""#7f5d5d""]","130","false","[0.306,0.677,0.461,0.259]","2","0",""
"","","","","","two-step-trial","159","537914","0.0-136.0-0.0","","","","","","","","","[2,3]","1","3","513","0","[1280,720]","1","[0,1]","1","1","323","1","1","[""#48a782"",""#955db9""]","[""#5f6f81"",""#7f5d5d""]","131","false","[0.35,0.655,0.474,0.278]","2","0",""
"","","","","","two-step-trial","160","540727","0.0-137.0-0.0","","","","","","","","","[2,3]","1","3","537","0","[1280,720]","1","[0,1]","1","1","259","1","1","[""#48a782"",""#955db9""]","[""#5f6f81"",""#7f5d5d""]","132","false","[0.352,0.663,0.445,0.297]","2","0",""
"","","","","","two-step-trial","161","543409","0.0-138.0-0.0","","","","","","","","","[2,3]","1","3","373","0","[1280,720]","1","[0,1]","1","1","301","1","1","[""#48a782"",""#955db9""]","[""#5f6f81"",""#7f5d5d""]","133","false","[0.374,0.662,0.412,0.314]","2","0",""
"","","","","","two-step-trial","162","546127","0.0-139.0-0.0","","","","","","","","","[2,3]","0","2","389","1","[1280,720]","1","[0,1]","1","1","306","1","1","[""#48a782"",""#955db9""]","[""#5f6f81"",""#7f5d5d""]","134","false","[0.405,0.666,0.424,0.315]","2","0",""
"","","","","","two-step-trial","163","548954","0.0-140.0-0.0","","","","","","","","","[2,3]","0","2","490","0","[1280,720]","1","[0,1]","0","0","315","0","1","[""#48a782"",""#955db9""]","[""#5f6f81"",""#7f5d5d""]","135","false","[0.43,0.696,0.452,0.345]","2","0",""
"","","","","","two-step-trial","164","551679","0.0-141.0-0.0","","","","","","","","","[0,1]","0","0","427","0","[1280,720]","1","[0,1]","0","0","278","1","0","[""#48a782"",""#955db9""]","[""#5f6f81"",""#7f5d5d""]","136","false","[0.426,0.681,0.444,0.337]","2","0",""
"","","","","","two-step-trial","165","554390","0.0-142.0-0.0","","","","","","","","","[0,1]","0","0","393","0","[1280,720]","1","[0,1]","0","0","290","1","0","[""#48a782"",""#955db9""]","[""#5f6f81"",""#7f5d5d""]","137","false","[0.411,0.674,0.45,0.299]","2","0",""
"","","","","","two-step-trial","166","557215","0.0-143.0-0.0","","","","","","","","","[0,1]","0","0","360","1","[1280,720]","1","[0,1]","0","0","436","1","0","[""#48a782"",""#955db9""]","[""#5f6f81"",""#7f5d5d""]","138","false","[0.414,0.699,0.459,0.339]","2","0",""
"","","","","","two-step-trial","167","560305","0.0-144.0-0.0","","","","","","","","","[0,1]","0","0","709","1","[1280,720]","1","[0,1]","0","0","362","1","0","[""#48a782"",""#955db9""]","[""#5f6f81"",""#7f5d5d""]","139","false","[0.394,0.734,0.462,0.307]","2","0",""
"","","","","","two-step-trial","168","563252","0.0-145.0-0.0","","","","","","","","","[0,1]","0","0","522","1","[1280,720]","1","[0,1]","0","0","414","1","0","[""#48a782"",""#955db9""]","[""#5f6f81"",""#7f5d5d""]","140","false","[0.361,0.693,0.467,0.292]","2","0",""
"","","","","","two-step-trial","169","565993","0.0-146.0-0.0","","","","","","","","","[0,1]","0","0","447","1","[1280,720]","1","[0,1]","0","0","262","1","0","[""#48a782"",""#955db9""]","[""#5f6f81"",""#7f5d5d""]","141","false","[0.354,0.722,0.46,0.26]","2","0",""
"","","","","","two-step-trial","170","568782","0.0-147.0-0.0","","","","","","","","","[2,3]","1","3","498","0","[1280,720]","1","[0,1]","0","0","276","0","1","[""#48a782"",""#955db9""]","[""#5f6f81"",""#7f5d5d""]","142","false","[0.353,0.749,0.428,0.301]","2","0",""
"","","","","","two-step-trial","171","571491","0.0-148.0-0.0","","","","","","","","","[0,1]","0","0","414","0","[1280,720]","1","[0,1]","0","0","277","1","0","[""#48a782"",""#955db9""]","[""#5f6f81"",""#7f5d5d""]","143","false","[0.361,0.73,0.409,0.316]","2","0",""
"","","","","","two-step-trial","172","574224","0.0-149.0-0.0","","","","","","","","","[2,3]","0","2","375","0","[1280,720]","1","[0,1]","0","0","335","0","1","[""#48a782"",""#955db9""]","[""#5f6f81"",""#7f5d5d""]","144","false","[0.295,0.721,0.424,0.316]","2","0",""
"","","","","","two-step-trial","173","577049","0.0-150.0-0.0","","","","","","","","","[0,1]","0","0","488","0","[1280,720]","1","[0,1]","0","0","327","1","0","[""#48a782"",""#955db9""]","[""#5f6f81"",""#7f5d5d""]","145","false","[0.287,0.742,0.437,0.287]","2","0",""
"","","","","","two-step-trial","174","580019","0.0-151.0-0.0","","","","","","","","","[0,1]","0","0","484","1","[1280,720]","1","[0,1]","0","0","462","1","0","[""#48a782"",""#955db9""]","[""#5f6f81"",""#7f5d5d""]","146","false","[0.278,0.742,0.427,0.31]","2","0",""
"","","","","","two-step-trial","175","582950","0.0-152.0-0.0","","","","","","","","","[2,3]","1","3","475","0","[1280,720]","1","[0,1]","0","0","435","0","1","[""#48a782"",""#955db9""]","[""#5f6f81"",""#7f5d5d""]","147","false","[0.277,0.741,0.475,0.282]","2","0",""
"","","","","","two-step-trial","176","585654","0.0-153.0-0.0","","","","","","","","","[0,1]","0","0","359","0","[1280,720]","1","[0,1]","0","0","318","1","0","[""#48a782"",""#955db9""]","[""#5f6f81"",""#7f5d5d""]","148","false","[0.264,0.733,0.497,0.268]","2","0",""
"","","","","","two-step-trial","177","588513","0.0-154.0-0.0","","","","","","","","","[0,1]","0","0","531","0","[1280,720]","1","[0,1]","0","0","311","1","0","[""#48a782"",""#955db9""]","[""#5f6f81"",""#7f5d5d""]","149","false","[0.258,0.74,0.534,0.264]","2","0",""
"","","","","","two-step-trial","178","591200","0.0-155.0-0.0","","","","","","","","","[0,1]","1","1","386","0","[1280,720]","1","[0,1]","0","0","282","1","0","[""#48a782"",""#955db9""]","[""#5f6f81"",""#7f5d5d""]","150","false","[0.326,0.735,0.576,0.271]","2","0",""
"","","","","","two-step-instructions","179","601559","0.0-156.0","10353","","","[{""page_index"":0,""viewing_time"":10353}]","","","","","","","","","","","","","","","","","","","","","","","","",""
"","","","","","two-step-comprehension","180","625483","0.0-157.0","23919","","","","[""green"",""purple""]","0","","","","","","","","","","","","","","","","","","","","","","","[{""event"":""focus"",""trial"":1,""time"":1431},{""event"":""fullscreenenter"",""trial"":1,""time"":4153}]"
