"success","timeout","failed_images","failed_audio","failed_video","trial_type","trial_index","time_elapsed","internal_node_id","rt","stimulus","response","view_history","state_1_ids","state_1_key","state_1_choice","state_1_rt","transition","state","state_2_ids","state_2_key","state_2_choice","state_2_rt","outcome","rocket_colors","planet_colors","screen_resolution","minimum_resolution","trial","drifts","drift_ix","browser_interactions","missing","responses","num_errors","interactions"
"true","false","[]","[]","[]","preload","0","221","0.0-0.0","","","","","","","","","","","","","","","","","","","","","","","","","","",""
"true","","","","","fullscreen","1","4170","0.0-1.0","","","","","","","","","","","","","","","","","","","","","","","","","","",""
"","","","","","html-keyboard-response","2","10165","0.0-2.0","5992.5","<p>You are starting a demo of the <b>two-step task.</b></p><p>To see the instructions, press the ""1"" key. To skip them, press the ""2"" key.</p>","2","","","","","","","","","","","","","","","","","","","","","","","",""
"","","","","","two-step-instructions","3","45590","0.0-4.0","35422.5","","","[{""page_index"":0,""viewing_time"":1915.8000000044703},{""page_index"":1,""viewing_time"":1733},{""page_index"":2,""viewing_time"":31773}]","","","","","","","","","","","","","","","","","","","","","","",""
"","","","","","two-step-trial","4","49970","0.0-5.0-0.0","","","","","[0,1]","1","1","1635.7000000029802","1","1","[2,3]","1","3","720.6000000014901","1","[""#48a782"",""#955db9""]","[""#7f5d5d"",""#5f6f81""]","[1440,900]","1","1","[0.44,0.385,0.62,0.421]","1","0","false","","",""
"","","","","","two-step-trial","5","53593","0.0-6.0-0.0","","","","","[0,1]","1","1","804.5","1","1","[2,3]","0","2","797","1","[""#48a782"",""#955db9""]","[""#7f5d5d"",""#5f6f81""]","[1440,900]","1","2","[0.427,0.383,0.623,0.388]","1","0","false","","",""
"","","","","","two-step-trial","6","58031","0.0-7.0-0.0","","","","","[0,1]","1","1","734.6000000014901","0","0","[0,1]","1","1","1688.2000000029802","0","[""#48a782"",""#955db9""]","[""#7f5d5d"",""#5f6f81""]","[1440,900]","1","3","[0.366,0.399,0.638,0.394]","1","0","false","","",""
"","","","","","two-step-trial","7","62518","0.0-8.0-0.0","","","","","[0,1]","0","0","391.8999999985099","1","0","[0,1]","0","0","2075","1","[""#48a782"",""#955db9""]","[""#7f5d5d"",""#5f6f81""]","[1440,900]","1","4","[0.352,0.371,0.644,0.424]","1","0","false","","",""
"","","","","","two-step-trial","8","65799","0.0-9.0-0.0","","","","","[0,1]","1","1","780.5","1","1","[2,3]","1","3","480.3999999985099","0","[""#48a782"",""#955db9""]","[""#7f5d5d"",""#5f6f81""]","[1440,900]","1","5","[0.387,0.418,0.671,0.445]","1","0","false","","",""
"","","","","","two-step-trial","9","70865","0.0-10.0-0.0","","","","","[0,1]","1","1","2564.7999999970198","1","1","[2,3]","0","2","482.29999999701977","1","[""#48a782"",""#955db9""]","[""#7f5d5d"",""#5f6f81""]","[1440,900]","1","6","[0.376,0.44,0.655,0.477]","1","0","false","","",""
"","","","","","two-step-trial","10","74289","0.0-11.0-0.0","","","","","[0,1]","0","0","993.8000000044703","1","0","[0,1]","0","0","411.5","0","[""#48a782"",""#955db9""]","[""#7f5d5d"",""#5f6f81""]","[1440,900]","1","7","[0.376,0.46,0.674,0.453]","1","0","false","","",""
"","","","","","two-step-trial","11","78113","0.0-12.0-0.0","","","","","[0,1]","1","1","661","0","0","[0,1]","0","0","1139.8999999985099","0","[""#48a782"",""#955db9""]","[""#7f5d5d"",""#5f6f81""]","[1440,900]","1","8","[0.37,0.476,0.645,0.47]","1","0","false","","",""
"","","","","","two-step-trial","12","81281","0.0-13.0-0.0","","","","","[0,1]","1","1","790.6000000014901","1","1","[2,3]","1","3","356.5","1","[""#48a782"",""#955db9""]","[""#7f5d5d"",""#5f6f81""]","[1440,900]","1","9","[0.349,0.439,0.653,0.482]","1","0","false","","",""
"","","","","","two-step-trial","13","84241","0.0-14.0-0.0","","","","","[0,1]","0","0","405.20000000298023","1","0","[0,1]","0","0","538.1999999955297","0","[""#48a782"",""#955db9""]","[""#7f5d5d"",""#5f6f81""]","[1440,900]","1","10","[0.347,0.471,0.629,0.478]","1","0","false","","",""
"","","","","","two-step-trial","14","89621","0.0-15.0-0.0","","","","","[0,1]","1","1","1921.1000000014901","0","0","[0,1]","1","1","1440.5","1","[""#48a782"",""#955db9""]","[""#7f5d5d"",""#5f6f81""]","[1440,900]","1","11","[0.346,0.411,0.666,0.456]","1","0","false","","",""
"","","","","","two-step-trial","15","93327","0.0-16.0-0.0","","","","","[0,1]","0","0","1074.3000000044703","0","1","[2,3]","0","2","617.9000000059605","1","[""#48a782"",""#955db9""]","[""#7f5d5d"",""#5f6f81""]","[1440,900]","1","12","[0.371,0.413,0.638,0.405]","1","0","false","","",""
"","","","","","two-step-trial","16","98221","0.0-17.0-0.0","","","","","[0,1]","1","1","2476.39999999851","1","1","[2,3]","0","2","396.1000000014901","0","[""#48a782"",""#955db9""]","[""#7f5d5d"",""#5f6f81""]","[1440,900]","1","13","[0.354,0.425,0.641,0.388]","1","0","false","","",""
"","","","","","two-step-trial","17","103727","0.0-18.0-0.0","","","","","[0,1]","1","1","3106.89999999851","1","1","[2,3]","1","3","374.29999999701977","1","[""#48a782"",""#955db9""]","[""#7f5d5d"",""#5f6f81""]","[1440,900]","1","14","[0.315,0.45,0.635,0.335]","1","0","false","","",""
"","","","","","two-step-trial","18","106869","0.0-19.0-0.0","","","","","[0,1]","1","1","537.2999999970198","1","1","[2,3]","1","3","591.1000000014901","0","[""#48a782"",""#955db9""]","[""#7f5d5d"",""#5f6f81""]","[1440,900]","1","15","[0.291,0.41,0.635,0.339]","1","0","false","","",""
"","","","","","two-step-trial","19","109817","0.0-20.0-0.0","","","","","[0,1]","1","1","406.5","0","0","[0,1]","0","0","520.6000000014901","1","[""#48a782"",""#955db9""]","[""#7f5d5d"",""#5f6f81""]","[1440,900]","1","16","[0.3,0.409,0.61,0.364]","1","0","false","","",""
"","","","","","two-step-trial","20","112637","0.0-21.0-0.0","","","","","[0,1]","0","0","448.69999999552965","1","0","[0,1]","0","0","351.30000000447035","0","[""#48a782"",""#955db9""]","[""#7f5d5d"",""#5f6f81""]","[1440,900]","1","17","[0.3,0.418,0.639,0.392]","1","0","false","","",""
"","","","","","two-step-trial","21","116681","0.0-22.0-0.0","","","","","[0,1]","1","1","1626.2000000029802","1","1","[2,3]","1","3","394.20000000298023","1","[""#48a782"",""#955db9""]","[""#7f5d5d"",""#5f6f81""]","[1440,900]","1","18","[0.308,0.463,0.63,0.375]","1","0","false","","",""
"","","","","","two-step-trial","22","119457","0.0-23.0-0.0","","","","","[0,1]","0","0","417.3999999985099","1","0","[0,1]","0","0","343.5","0","[""#48a782"",""#955db9""]","[""#7f5d5d"",""#5f6f81""]","[1440,900]","1","19","[0.345,0.475,0.617,0.402]","1","0","false","","",""
"","","","","","two-step-trial","23","122822","0.0-24.0-0.0","","","","","[0,1]","1","1","914.7000000029802","1","1","[2,3]","1","3","432.3999999985099","0","[""#48a782"",""#955db9""]","[""#7f5d5d"",""#5f6f81""]","[1440,900]","1","20","[0.39,0.463,0.595,0.433]","1","0","false","","",""
"","","","","","two-step-trial","24","127113","0.0-25.0-0.0","","","","","[0,1]","0","0","406.70000000298023","1","0","[0,1]","1","1","1865.5","0","[""#48a782"",""#955db9""]","[""#7f5d5d"",""#5f6f81""]","[1440,900]","1","21","[0.413,0.433,0.607,0.447]","1","0","false","","",""
"","","","","","two-step-trial","25","130457","0.0-26.0-0.0","","","","","[0,1]","1","1","433.40000000596046","0","0","[0,1]","1","1","889.9000000059605","0","[""#48a782"",""#955db9""]","[""#7f5d5d"",""#5f6f81""]","[1440,900]","1","22","[0.397,0.431,0.605,0.426]","1","0","false","","",""
"","","","","","two-step-trial","26","133541","0.0-27.0-0.0","","","","","[0,1]","0","0","363.5","0","1","[2,3]","0","2","706.1999999955297","0","[""#48a782"",""#955db9""]","[""#7f5d5d"",""#5f6f81""]","[1440,900]","1","23","[0.375,0.426,0.617,0.383]","1","0","false","","",""
"","","","","","two-step-trial","27","137541","0.0-28.0-0.0","","","","","[0,1]","0","0","1031.6000000014901","0","1","[2,3]","1","3","953.3999999985099","0","[""#48a782"",""#955db9""]","[""#7f5d5d"",""#5f6f81""]","[1440,900]","1","24","[0.396,0.432,0.631,0.356]","1","0","false","","",""
"","","","","","two-step-trial","28","143617","0.0-29.0-0.0","","","","","[0,1]","1","1","3396.2999999970198","1","1","[2,3]","1","3","660.8999999985099","0","[""#48a782"",""#955db9""]","[""#7f5d5d"",""#5f6f81""]","[1440,900]","1","25","[0.352,0.393,0.634,0.357]","1","0","false","","",""
"","","","","","two-step-trial","29","146620","0.0-30.0-0.0","","","","","[0,1]","0","0","572.2000000029802","1","0","[0,1]","0","0","419.79999999701977","0","[""#48a782"",""#955db9""]","[""#7f5d5d"",""#5f6f81""]","[1440,900]","1","26","[0.379,0.371,0.632,0.315]","1","0","false","","",""
"","","","","","two-step-trial","30","151719","0.0-31.0-0.0","","","","","[0,1]","0","0","888.3999999985099","1","0","[0,1]","1","1","2194.89999999851","1","[""#48a782"",""#955db9""]","[""#7f5d5d"",""#5f6f81""]","[1440,900]","1","27","[0.44,0.355,0.639,0.305]","1","0","false","","",""
"","","","","","two-step-trial","31","154949","0.0-32.0-0.0","","","","","[0,1]","0","0","354.29999999701977","0","1","[2,3]","0","2","860.3999999985099","1","[""#48a782"",""#955db9""]","[""#7f5d5d"",""#5f6f81""]","[1440,900]","1","28","[0.473,0.399,0.627,0.311]","1","0","false","","",""
"","","","","","two-step-trial","32","158513","0.0-33.0-0.0","","","","","[0,1]","1","1","356.69999999552965","0","0","[0,1]","1","1","1191.1000000014901","0","[""#48a782"",""#955db9""]","[""#7f5d5d"",""#5f6f81""]","[1440,900]","1","29","[0.47,0.426,0.594,0.318]","1","0","false","","",""
"","","","","","two-step-trial","33","161581","0.0-34.0-0.0","","","","","[0,1]","1","1","565.2000000029802","1","1","[2,3]","0","2","488.20000000298023","0","[""#48a782"",""#955db9""]","[""#7f5d5d"",""#5f6f81""]","[1440,900]","1","30","[0.455,0.475,0.559,0.323]","1","0","false","","",""
"","","","","","two-step-trial","34","166813","0.0-35.0-0.0","","","","","[0,1]","1","1","2773.60000000149","1","1","[2,3]","1","3","444.5","1","[""#48a782"",""#955db9""]","[""#7f5d5d"",""#5f6f81""]","[1440,900]","1","31","[0.435,0.51,0.608,0.321]","1","0","false","","",""
"","","","","","two-step-trial","35","169497","0.0-36.0-0.0","","","","","[0,1]","1","1","333.80000000447035","1","1","[2,3]","1","3","334","1","[""#48a782"",""#955db9""]","[""#7f5d5d"",""#5f6f81""]","[1440,900]","1","32","[0.415,0.507,0.579,0.317]","1","0","false","","",""
"","","","","","two-step-trial","36","172585","0.0-37.0-0.0","","","","","[0,1]","1","1","322.5","0","0","[0,1]","0","0","745","1","[""#48a782"",""#955db9""]","[""#7f5d5d"",""#5f6f81""]","[1440,900]","1","33","[0.459,0.542,0.595,0.302]","1","0","false","","",""
"","","","","","two-step-trial","37","175636","0.0-38.0-0.0","","","","","[0,1]","0","0","384.1000000014901","0","1","[2,3]","0","2","649.1000000014901","1","[""#48a782"",""#955db9""]","[""#7f5d5d"",""#5f6f81""]","[1440,900]","1","34","[0.491,0.491,0.597,0.309]","1","0","false","","",""
"","","","","","two-step-trial","38","179017","0.0-39.0-0.0","","","","","[0,1]","0","0","697.0999999940395","1","0","[0,1]","0","0","668.8999999985099","0","[""#48a782"",""#955db9""]","[""#7f5d5d"",""#5f6f81""]","[1440,900]","1","35","[0.474,0.513,0.589,0.338]","1","0","false","","",""
"","","","","","two-step-trial","39","181740","0.0-40.0-0.0","","","","","[0,1]","1","1","317.70000000298023","1","1","[2,3]","1","3","388.90000000596046","0","[""#48a782"",""#955db9""]","[""#7f5d5d"",""#5f6f81""]","[1440,900]","1","36","[0.457,0.538,0.559,0.332]","1","0","false","","",""
"","","","","","two-step-trial","40","185726","0.0-41.0-0.0","","","","","[0,1]","0","0","1582.2999999970198","1","0","[0,1]","0","0","383.79999999701977","0","[""#48a782"",""#955db9""]","[""#7f5d5d"",""#5f6f81""]","[1440,900]","1","37","[0.485,0.54,0.582,0.328]","1","0","false","","",""
"","","","","","two-step-trial","41","190836","0.0-42.0-0.0","","","","","[0,1]","1","1","2711.7000000029802","0","0","[0,1]","1","1","388.20000000298023","0","[""#48a782"",""#955db9""]","[""#7f5d5d"",""#5f6f81""]","[1440,900]","1","38","[0.448,0.561,0.557,0.342]","1","0","false","","",""
"","","","","","two-step-trial","42","193596","0.0-43.0-0.0","","","","","[0,1]","1","1","415.6000000014901","1","1","[2,3]","0","2","334.1000000014901","1","[""#48a782"",""#955db9""]","[""#7f5d5d"",""#5f6f81""]","[1440,900]","1","39","[0.401,0.544,0.587,0.37]","1","0","false","","",""
"","","","","","two-step-trial","43","196553","0.0-44.0-0.0","","","","","[0,1]","1","1","327","1","1","[2,3]","1","3","614","0","[""#48a782"",""#955db9""]","[""#7f5d5d"",""#5f6f81""]","[1440,900]","1","40","[0.404,0.536,0.602,0.375]","1","0","false","","",""
"","","","","","two-step-trial","44","199808","0.0-45.0-0.0","","","","","[0,1]","1","1","356.30000000447035","1","1","[2,3]","0","2","882","0","[""#48a782"",""#955db9""]","[""#7f5d5d"",""#5f6f81""]","[1440,900]","1","41","[0.396,0.535,0.6,0.41]","1","0","false","","",""
"","","","","","two-step-trial","45","202644","0.0-46.0-0.0","","","","","[0,1]","0","0","323.6000000014901","1","0","[0,1]","1","1","496.20000000298023","1","[""#48a782"",""#955db9""]","[""#7f5d5d"",""#5f6f81""]","[1440,900]","1","42","[0.406,0.554,0.6,0.432]","1","0","false","","",""
"","","","","","two-step-trial","46","207160","0.0-47.0-0.0","","","","","[0,1]","0","0","1921.1000000014901","1","0","[0,1]","1","1","575","0","[""#48a782"",""#955db9""]","[""#7f5d5d"",""#5f6f81""]","[1440,900]","1","43","[0.381,0.564,0.612,0.443]","1","0","false","","",""
"","","","","","two-step-trial","47","209966","0.0-48.0-0.0","","","","","[0,1]","1","1","336","1","1","[2,3]","0","2","446.1000000014901","1","[""#48a782"",""#955db9""]","[""#7f5d5d"",""#5f6f81""]","[1440,900]","1","44","[0.375,0.564,0.659,0.454]","1","0","false","","",""
"","","","","","two-step-trial","48","213288","0.0-49.0-0.0","","","","","[0,1]","1","1","990.7000000029802","1","1","[2,3]","0","2","311.3999999985099","1","[""#48a782"",""#955db9""]","[""#7f5d5d"",""#5f6f81""]","[1440,900]","1","45","[0.37,0.592,0.676,0.446]","1","0","false","","",""
"","","","","","two-step-trial","49","216024","0.0-50.0-0.0","","","","","[0,1]","1","1","318.20000000298023","1","1","[2,3]","0","2","400.79999999701977","1","[""#48a782"",""#955db9""]","[""#7f5d5d"",""#5f6f81""]","[1440,900]","1","46","[0.369,0.571,0.682,0.419]","1","0","false","","",""
"","","","","","two-step-trial","50","218728","0.0-51.0-0.0","","","","","[0,1]","1","1","349.5","1","1","[2,3]","0","2","329.79999999701977","1","[""#48a782"",""#955db9""]","[""#7f5d5d"",""#5f6f81""]","[1440,900]","1","47","[0.392,0.532,0.65,0.4]","1","0","false","","",""
"","","","","","two-step-trial","51","221391","0.0-52.0-0.0","","","","","[0,1]","1","1","316.20000000298023","1","1","[2,3]","0","2","328.1000000014901","0","[""#48a782"",""#955db9""]","[""#7f5d5d"",""#5f6f81""]","[1440,900]","1","48","[0.412,0.529,0.637,0.409]","1","0","false","","",""
"","","","","","two-step-trial","52","224228","0.0-53.0-0.0","","","","","[0,1]","0","0","385.5","1","0","[0,1]","1","1","440.6000000014901","0","[""#48a782"",""#955db9""]","[""#7f5d5d"",""#5f6f81""]","[1440,900]","1","49","[0.41,0.533,0.637,0.402]","1","0","false","","",""
"","","","","","two-step-trial","53","227353","0.0-54.0-0.0","","","","","[0,1]","1","1","793.7999999970198","1","1","[2,3]","0","2","298.20000000298023","1","[""#48a782"",""#955db9""]","[""#7f5d5d"",""#5f6f81""]","[1440,900]","1","50","[0.394,0.554,0.63,0.39]","1","0","false","","",""
"","","","","","two-step-trial","54","230212","0.0-55.0-0.0","","","","","[0,1]","1","1","415.1000000014901","1","1","[2,3]","0","2","425.3999999985099","0","[""#48a782"",""#955db9""]","[""#7f5d5d"",""#5f6f81""]","[1440,900]","1","51","[0.351,0.543,0.599,0.412]","1","0","false","","",""
"","","","","","two-step-trial","55","233221","0.0-56.0-0.0","","","","","[0,1]","0","0","321.5","1","0","[0,1]","1","1","675.1999999955297","0","[""#48a782"",""#955db9""]","[""#7f5d5d"",""#5f6f81""]","[1440,900]","1","52","[0.355,0.541,0.573,0.402]","1","0","false","","",""
"","","","","","two-step-trial","56","236072","0.0-57.0-0.0","","","","","[0,1]","0","0","517.5","0","1","[2,3]","0","2","311.19999999552965","0","[""#48a782"",""#955db9""]","[""#7f5d5d"",""#5f6f81""]","[1440,900]","1","53","[0.35,0.565,0.6,0.385]","1","0","false","","",""
"","","","","","two-step-trial","57","239072","0.0-58.0-0.0","","","","","[0,1]","0","0","584.5","1","0","[0,1]","1","1","400.80000000447035","1","[""#48a782"",""#955db9""]","[""#7f5d5d"",""#5f6f81""]","[1440,900]","1","54","[0.367,0.543,0.601,0.392]","1","0","false","","",""
"","","","","","two-step-trial","58","241776","0.0-59.0-0.0","","","","","[0,1]","0","0","309.5","1","0","[0,1]","1","1","367.69999999552965","0","[""#48a782"",""#955db9""]","[""#7f5d5d"",""#5f6f81""]","[1440,900]","1","55","[0.341,0.54,0.588,0.372]","1","0","false","","",""
"","","","","","two-step-trial","59","245140","0.0-60.0-0.0","","","","","[0,1]","1","1","1012.3999999985099","1","1","[2,3]","0","2","339","1","[""#48a782"",""#955db9""]","[""#7f5d5d"",""#5f6f81""]","[1440,900]","1","56","[0.388,0.584,0.641,0.394]","1","0","false","","",""
"","","","","","two-step-trial","60","247933","0.0-61.0-0.0","","","","","[0,1]","1","1","363.1000000014901","1","1","[2,3]","0","2","415.20000000298023","0","[""#48a782"",""#955db9""]","[""#7f5d5d"",""#5f6f81""]","[1440,900]","1","57","[0.373,0.597,0.649,0.355]","1","0","false","","",""
"","","","","","two-step-trial","61","251416","0.0-62.0-0.0","","","","","[0,1]","0","0","604.2999999970198","0","1","[2,3]","0","2","857.0999999940395","0","[""#48a782"",""#955db9""]","[""#7f5d5d"",""#5f6f81""]","[1440,900]","1","58","[0.383,0.601,0.627,0.333]","1","0","false","","",""
"","","","","","two-step-trial","62","256564","0.0-63.0-0.0","","","","","[0,1]","0","0","2647.89999999851","1","0","[0,1]","0","0","489.8999999985099","1","[""#48a782"",""#955db9""]","[""#7f5d5d"",""#5f6f81""]","[1440,900]","1","59","[0.401,0.574,0.656,0.323]","1","0","false","","",""
"","","","","","two-step-trial","63","260416","0.0-64.0-0.0","","","","","[0,1]","0","0","1461.1999999955297","1","0","[0,1]","0","0","372.79999999701977","0","[""#48a782"",""#955db9""]","[""#7f5d5d"",""#5f6f81""]","[1440,900]","1","60","[0.433,0.567,0.64,0.284]","1","0","false","","",""
"","","","","","two-step-trial","64","263428","0.0-65.0-0.0","","","","","[0,1]","0","0","550.7000000029802","1","0","[0,1]","1","1","446.09999999403954","0","[""#48a782"",""#955db9""]","[""#7f5d5d"",""#5f6f81""]","[1440,900]","1","61","[0.443,0.536,0.633,0.265]","1","0","false","","",""
"","","","","","two-step-trial","65","266072","0.0-66.0-0.0","","","","","[0,1]","1","1","340.79999999701977","1","1","[2,3]","0","2","279.5","1","[""#48a782"",""#955db9""]","[""#7f5d5d"",""#5f6f81""]","[1440,900]","1","62","[0.42,0.521,0.591,0.279]","1","0","false","","",""
"","","","","","two-step-trial","66","268712","0.0-67.0-0.0","","","","","[0,1]","1","1","287","1","1","[2,3]","0","2","340.19999999552965","1","[""#48a782"",""#955db9""]","[""#7f5d5d"",""#5f6f81""]","[1440,900]","1","63","[0.392,0.519,0.612,0.319]","1","0","false","","",""
"","","","","","two-step-trial","67","271396","0.0-68.0-0.0","","","","","[0,1]","1","1","316.5","1","1","[2,3]","0","2","353.8999999985099","0","[""#48a782"",""#955db9""]","[""#7f5d5d"",""#5f6f81""]","[1440,900]","1","64","[0.354,0.493,0.612,0.332]","1","0","false","","",""
"","","","","","two-step-trial","68","274148","0.0-69.0-0.0","","","","","[0,1]","0","0","335.80000000447035","0","1","[2,3]","1","3","400.90000000596046","1","[""#48a782"",""#955db9""]","[""#7f5d5d"",""#5f6f81""]","[1440,900]","1","65","[0.379,0.495,0.568,0.327]","1","0","false","","",""
"","","","","","two-step-trial","69","277320","0.0-70.0-0.0","","","","","[0,1]","1","1","723.3999999985099","1","1","[2,3]","0","2","426.29999999701977","1","[""#48a782"",""#955db9""]","[""#7f5d5d"",""#5f6f81""]","[1440,900]","1","66","[0.383,0.497,0.601,0.305]","1","0","false","","",""
"","","","","","two-step-trial","70","280284","0.0-71.0-0.0","","","","","[0,1]","1","1","403.70000000298023","1","1","[2,3]","0","2","544.4000000059605","1","[""#48a782"",""#955db9""]","[""#7f5d5d"",""#5f6f81""]","[1440,900]","1","67","[0.425,0.523,0.539,0.345]","1","0","false","","",""
"","","","","","two-step-trial","71","282972","0.0-72.0-0.0","","","","","[0,1]","1","1","351.1000000014901","1","1","[2,3]","0","2","324.70000000298023","1","[""#48a782"",""#955db9""]","[""#7f5d5d"",""#5f6f81""]","[1440,900]","1","68","[0.432,0.482,0.523,0.353]","1","0","false","","",""
"","","","","","two-step-trial","72","285611","0.0-73.0-0.0","","","","","[0,1]","1","1","312.8999999985099","1","1","[2,3]","0","2","314.29999999701977","1","[""#48a782"",""#955db9""]","[""#7f5d5d"",""#5f6f81""]","[1440,900]","1","69","[0.457,0.505,0.515,0.343]","1","0","false","","",""
"","","","","","two-step-trial","73","288431","0.0-74.0-0.0","","","","","[0,1]","1","1","370.30000000447035","0","0","[0,1]","0","0","435.70000000298023","0","[""#48a782"",""#955db9""]","[""#7f5d5d"",""#5f6f81""]","[1440,900]","1","70","[0.451,0.526,0.491,0.303]","1","0","false","","",""
"","","","","","two-step-trial","74","291344","0.0-75.0-0.0","","","","","[0,1]","1","1","554.3000000044703","1","1","[2,3]","0","2","340.79999999701977","0","[""#48a782"",""#955db9""]","[""#7f5d5d"",""#5f6f81""]","[1440,900]","1","71","[0.425,0.552,0.478,0.262]","1","0","false","","",""
"","","","","","two-step-trial","75","294136","0.0-76.0-0.0","","","","","[0,1]","0","0","321.59999999403954","1","0","[0,1]","1","1","449","1","[""#48a782"",""#955db9""]","[""#7f5d5d"",""#5f6f81""]","[1440,900]","1","72","[0.434,0.518,0.459,0.266]","1","0","false","","",""
"","","","","","two-step-trial","76","297995","0.0-77.0-0.0","","","","","[0,1]","0","0","598.1999999955297","0","1","[2,3]","0","2","1244.1999999955297","0","[""#48a782"",""#955db9""]","[""#7f5d5d"",""#5f6f81""]","[1440,900]","1","73","[0.434,0.507,0.435,0.282]","1","0","false","","",""
"","","","","","two-step-trial","77","300760","0.0-78.0-0.0","","","","","[0,1]","0","0","285.8999999985099","1","0","[0,1]","1","1","458.69999999552965","0","[""#48a782"",""#955db9""]","[""#7f5d5d"",""#5f6f81""]","[1440,900]","1","74","[0.474,0.468,0.425,0.256]","1","0","false","","",""
"","","","","","two-step-trial","78","303424","0.0-79.0-0.0","","","","","[0,1]","1","1","259.70000000298023","1","1","[2,3]","0","2","384.6000000014901","0","[""#48a782"",""#955db9""]","[""#7f5d5d"",""#5f6f81""]","[1440,900]","1","75","[0.46,0.495,0.398,0.253]","1","0","false","","",""
"","","","","","two-step-instructions","79","333674","0.0-80.0","30244.79999999702","","","[{""page_index"":0,""viewing_time"":28406.5},{""page_index"":1,""viewing_time"":1837.8999999985099}]","","","","","","","","","","","","","","","","","","","","","","",""
"","","","","","two-step-trial","80","339611","0.0-81.0-0.0","","","","","[0,1]","1","1","3523.39999999851","1","1","[2,3]","1","3","400.3999999985099","0","[""#48a782"",""#955db9""]","[""#7f5d5d"",""#5f6f81""]","[1440,900]","1","76","[0.432,0.494,0.438,0.256]","1","0","false","","",""
"","","","","","two-step-trial","81","342368","0.0-82.0-0.0","","","","","[0,1]","0","0","376.40000000596046","0","1","[2,3]","0","2","360.5","1","[""#48a782"",""#955db9""]","[""#7f5d5d"",""#5f6f81""]","[1440,900]","1","77","[0.461,0.493,0.446,0.27]","1","0","false","","",""
"","","","","","two-step-trial","82","345679","0.0-83.0-0.0","","","","","[0,1]","1","1","954.7000000029802","1","1","[2,3]","0","2","340.19999999552965","1","[""#48a782"",""#955db9""]","[""#7f5d5d"",""#5f6f81""]","[1440,900]","1","78","[0.514,0.513,0.473,0.268]","1","0","false","","",""
"","","","","","two-step-trial","83","348359","0.0-84.0-0.0","","","","","[0,1]","1","1","258.6000000014901","1","1","[2,3]","0","2","398.20000000298023","0","[""#48a782"",""#955db9""]","[""#7f5d5d"",""#5f6f81""]","[1440,900]","1","79","[0.504,0.552,0.491,0.291]","1","0","false","","",""
"","","","","","two-step-trial","84","351991","0.0-85.0-0.0","","","","","[0,1]","0","0","271.5","0","1","[2,3]","1","3","1344.7000000029802","0","[""#48a782"",""#955db9""]","[""#7f5d5d"",""#5f6f81""]","[1440,900]","1","80","[0.513,0.538,0.46,0.295]","1","0","false","","",""
"","","","","","two-step-trial","85","355383","0.0-86.0-0.0","","","","","[0,1]","0","0","1001.7000000029802","1","0","[0,1]","0","0","375.79999999701977","1","[""#48a782"",""#955db9""]","[""#7f5d5d"",""#5f6f81""]","[1440,900]","1","81","[0.523,0.491,0.47,0.326]","1","0","false","","",""
"","","","","","two-step-trial","86","358063","0.0-87.0-0.0","","","","","[0,1]","0","0","299.19999999552965","1","0","[0,1]","0","0","365.09999999403954","1","[""#48a782"",""#955db9""]","[""#7f5d5d"",""#5f6f81""]","[1440,900]","1","82","[0.525,0.548,0.454,0.36]","1","0","false","","",""
"","","","","","two-step-trial","87","360663","0.0-88.0-0.0","","","","","[0,1]","0","0","265","1","0","[0,1]","0","0","313.30000000447035","0","[""#48a782"",""#955db9""]","[""#7f5d5d"",""#5f6f81""]","[1440,900]","1","83","[0.538,0.579,0.452,0.325]","1","0","false","","",""
"","","","","","two-step-trial","88","363463","0.0-89.0-0.0","","","","","[0,1]","1","1","252.89999999850988","1","1","[2,3]","1","3","530.3999999985099","0","[""#48a782"",""#955db9""]","[""#7f5d5d"",""#5f6f81""]","[1440,900]","1","84","[0.524,0.64,0.439,0.371]","1","0","false","","",""
"","","","","","two-step-trial","89","366159","0.0-90.0-0.0","","","","","[0,1]","1","1","353.30000000447035","1","1","[2,3]","0","2","322.5","0","[""#48a782"",""#955db9""]","[""#7f5d5d"",""#5f6f81""]","[1440,900]","1","85","[0.524,0.637,0.455,0.377]","1","0","false","","",""
"","","","","","two-step-trial","90","368771","0.0-91.0-0.0","","","","","[0,1]","0","0","323.6000000014901","1","0","[0,1]","1","1","273.5","1","[""#48a782"",""#955db9""]","[""#7f5d5d"",""#5f6f81""]","[1440,900]","1","86","[0.535,0.666,0.471,0.392]","1","0","false","","",""
"","","","","","two-step-trial","91","371397","0.0-92.0-0.0","","","","","[0,1]","0","0","302.8999999985099","1","0","[0,1]","1","1","310.5","1","[""#48a782"",""#955db9""]","[""#7f5d5d"",""#5f6f81""]","[1440,900]","1","87","[0.504,0.695,0.423,0.387]","1","0","false","","",""
"","","","","","two-step-trial","92","374235","0.0-93.0-0.0","","","","","[0,1]","0","0","482.3999999985099","0","1","[2,3]","1","3","342","0","[""#48a782"",""#955db9""]","[""#7f5d5d"",""#5f6f81""]","[1440,900]","1","88","[0.485,0.667,0.458,0.39]","1","0","false","","",""
"","","","","","two-step-trial","93","376955","0.0-94.0-0.0","","","","","[0,1]","0","0","310.8999999985099","1","0","[0,1]","0","0","391.20000000298023","0","[""#48a782"",""#955db9""]","[""#7f5d5d"",""#5f6f81""]","[1440,900]","1","89","[0.47,0.661,0.502,0.408]","1","0","false","","",""
"","","","","","two-step-trial","94","379623","0.0-95.0-0.0","","","","","[0,1]","0","0","340.3999999985099","1","0","[0,1]","1","1","304.5","0","[""#48a782"",""#955db9""]","[""#7f5d5d"",""#5f6f81""]","[1440,900]","1","90","[0.46,0.678,0.464,0.349]","1","0","false","","",""
"","","","","","two-step-trial","95","382555","0.0-96.0-0.0","","","","","[0,1]","0","0","404.5","1","0","[0,1]","0","0","512.6000000014901","1","[""#48a782"",""#955db9""]","[""#7f5d5d"",""#5f6f81""]","[1440,900]","1","91","[0.46,0.655,0.459,0.313]","1","0","false","","",""
"","","","","","two-step-trial","96","385179","0.0-97.0-0.0","","","","","[0,1]","0","0","302","1","0","[0,1]","0","0","309","1","[""#48a782"",""#955db9""]","[""#7f5d5d"",""#5f6f81""]","[1440,900]","1","92","[0.459,0.663,0.496,0.332]","1","0","false","","",""
"","","","","","two-step-trial","97","387951","0.0-98.0-0.0","","","","","[0,1]","0","0","488.79999999701977","1","0","[0,1]","0","0","267.20000000298023","0","[""#48a782"",""#955db9""]","[""#7f5d5d"",""#5f6f81""]","[1440,900]","1","93","[0.47,0.662,0.476,0.3]","1","0","false","","",""
"","","","","","two-step-trial","98","390655","0.0-99.0-0.0","","","","","[0,1]","1","1","339.20000000298023","0","0","[0,1]","0","0","348.09999999403954","1","[""#48a782"",""#955db9""]","[""#7f5d5d"",""#5f6f81""]","[1440,900]","1","94","[0.495,0.666,0.452,0.265]","1","0","false","","",""
"","","","","","two-step-trial","99","393367","0.0-100.0-0.0","","","","","[0,1]","0","0","389.59999999403954","1","0","[0,1]","0","0","306","1","[""#48a782"",""#955db9""]","[""#7f5d5d"",""#5f6f81""]","[1440,900]","1","95","[0.524,0.697,0.448,0.345]","1","0","false","","",""
"","","","","","two-step-trial","100","396303","0.0-101.0-0.0","","","","","[0,1]","0","0","421.3999999985099","1","0","[0,1]","0","0","487.29999999701977","0","[""#48a782"",""#955db9""]","[""#7f5d5d"",""#5f6f81""]","[1440,900]","1","96","[0.524,0.681,0.435,0.338]","1","0","false","","",""
"","","","","","two-step-trial","101","399077","0.0-102.0-0.0","","","","","[0,1]","0","0","384.79999999701977","1","0","[0,1]","0","0","365.79999999701977","1","[""#48a782"",""#955db9""]","[""#7f5d5d"",""#5f6f81""]","[1440,900]","1","97","[0.542,0.675,0.441,0.363]","1","0","false","","",""
"","","","","","two-step-trial","102","401943","0.0-103.0-0.0","","","","","[0,1]","0","0","341.69999999552965","1","0","[0,1]","0","0","507.30000000447035","1","[""#48a782"",""#955db9""]","[""#7f5d5d"",""#5f6f81""]","[1440,900]","1","98","[0.542,0.7,0.418,0.358]","1","0","false","","",""
"","","","","","two-step-trial","103","404911","0.0-104.0-0.0","","","","","[0,1]","0","0","318.80000000447035","0","1","[2,3]","0","2","625.2999999970198","0","[""#48a782"",""#955db9""]","[""#7f5d5d"",""#5f6f81""]","[1440,900]","1","99","[0.586,0.735,0.41,0.338]","1","0","false","","",""
"","","","","","two-step-trial","104","407551","0.0-105.0-0.0","","","","","[0,1]","0","0","301","1","0","[0,1]","0","0","319.29999999701977","1","[""#48a782"",""#955db9""]","[""#7f5d5d"",""#5f6f81""]","[1440,900]","1","100","[0.591,0.693,0.426,0.36]","1","0","false","","",""
"","","","","","two-step-trial","105","410107","0.0-106.0-0.0","","","","","[0,1]","0","0","276.5","1","0","[0,1]","0","0","264.69999999552965","1","[""#48a782"",""#955db9""]","[""#7f5d5d"",""#5f6f81""]","[1440,900]","1","101","[0.639,0.722,0.416,0.356]","1","0","false","","",""
"","","","","","two-step-trial","106","412986","0.0-107.0-0.0","","","","","[0,1]","0","0","272.40000000596046","0","1","[2,3]","0","2","598.5","1","[""#48a782"",""#955db9""]","[""#7f5d5d"",""#5f6f81""]","[1440,900]","1","102","[0.661,0.749,0.353,0.384]","1","0","false","","",""
"","","","","","two-step-trial","107","415551","0.0-108.0-0.0","","","","","[0,1]","1","1","264.70000000298023","1","1","[2,3]","1","3","277.79999999701977","0","[""#48a782"",""#955db9""]","[""#7f5d5d"",""#5f6f81""]","[1440,900]","1","103","[0.659,0.729,0.293,0.396]","1","0","false","","",""
"","","","","","two-step-trial","108","418147","0.0-109.0-0.0","","","","","[0,1]","0","0","248.5","1","0","[0,1]","1","1","329","1","[""#48a782"",""#955db9""]","[""#7f5d5d"",""#5f6f81""]","[1440,900]","1","104","[0.615,0.721,0.288,0.378]","1","0","false","","",""
"","","","","","two-step-trial","109","421119","0.0-110.0-0.0","","","","","[0,1]","0","0","670.6000000014901","0","1","[2,3]","1","3","280.30000000447035","0","[""#48a782"",""#955db9""]","[""#7f5d5d"",""#5f6f81""]","[1440,900]","1","105","[0.562,0.742,0.297,0.343]","1","0","false","","",""
"","","","","","two-step-trial","110","423773","0.0-111.0-0.0","","","","","[0,1]","0","0","265.8999999985099","1","0","[0,1]","0","0","370.59999999403954","1","[""#48a782"",""#955db9""]","[""#7f5d5d"",""#5f6f81""]","[1440,900]","1","106","[0.532,0.742,0.25,0.332]","1","0","false","","",""
"","","","","","two-step-trial","111","426451","0.0-112.0-0.0","","","","","[0,1]","0","0","275.30000000447035","1","0","[0,1]","0","0","391.90000000596046","0","[""#48a782"",""#955db9""]","[""#7f5d5d"",""#5f6f81""]","[1440,900]","1","107","[0.531,0.742,0.255,0.33]","1","0","false","","",""
"","","","","","two-step-trial","112","429071","0.0-113.0-0.0","","","","","[0,1]","0","0","329.19999999552965","1","0","[0,1]","1","1","273","1","[""#48a782"",""#955db9""]","[""#7f5d5d"",""#5f6f81""]","[1440,900]","1","108","[0.576,0.733,0.281,0.338]","1","0","false","","",""
"","","","","","two-step-trial","113","431903","0.0-114.0-0.0","","","","","[0,1]","0","0","482.5","1","0","[0,1]","1","1","330.5","1","[""#48a782"",""#955db9""]","[""#7f5d5d"",""#5f6f81""]","[1440,900]","1","109","[0.593,0.74,0.277,0.333]","1","0","false","","",""
"","","","","","two-step-trial","114","434538","0.0-115.0-0.0","","","","","[0,1]","0","0","337.6000000014901","0","1","[2,3]","1","3","284.1000000014901","0","[""#48a782"",""#955db9""]","[""#7f5d5d"",""#5f6f81""]","[1440,900]","1","110","[0.57,0.735,0.318,0.349]","1","0","false","","",""
"","","","","","two-step-trial","115","437111","0.0-116.0-0.0","","","","","[0,1]","0","0","262.8999999985099","1","0","[0,1]","0","0","293.1000000014901","1","[""#48a782"",""#955db9""]","[""#7f5d5d"",""#5f6f81""]","[1440,900]","1","111","[0.566,0.726,0.306,0.333]","1","0","false","","",""
"","","","","","two-step-trial","116","440591","0.0-117.0-0.0","","","","","[0,1]","0","0","834.8000000044703","0","1","[2,3]","1","3","621.3999999985099","0","[""#48a782"",""#955db9""]","[""#7f5d5d"",""#5f6f81""]","[1440,900]","1","112","[0.552,0.734,0.35,0.354]","1","0","false","","",""
"","","","","","two-step-trial","117","443335","0.0-118.0-0.0","","","","","[0,1]","0","0","288.09999999403954","1","0","[0,1]","0","0","438.5","1","[""#48a782"",""#955db9""]","[""#7f5d5d"",""#5f6f81""]","[1440,900]","1","113","[0.503,0.684,0.352,0.329]","1","0","false","","",""
"","","","","","two-step-trial","118","446087","0.0-119.0-0.0","","","","","[0,1]","0","0","373.70000000298023","1","0","[0,1]","0","0","351.5","0","[""#48a782"",""#955db9""]","[""#7f5d5d"",""#5f6f81""]","[1440,900]","1","114","[0.517,0.664,0.374,0.314]","1","0","false","","",""
"","","","","","two-step-trial","119","448735","0.0-120.0-0.0","","","","","[0,1]","0","0","321.29999999701977","1","0","[0,1]","0","0","305.1000000014901","0","[""#48a782"",""#955db9""]","[""#7f5d5d"",""#5f6f81""]","[1440,900]","1","115","[0.505,0.635,0.405,0.281]","1","0","false","","",""
"","","","","","two-step-trial","120","451391","0.0-121.0-0.0","","","","","[0,1]","1","1","270","1","1","[2,3]","1","3","357.19999999552965","1","[""#48a782"",""#955db9""]","[""#7f5d5d"",""#5f6f81""]","[1440,900]","1","116","[0.506,0.651,0.43,0.328]","1","0","false","","",""
"","","","","","two-step-trial","121","454188","0.0-122.0-0.0","","","","","[0,1]","1","1","415","1","1","[2,3]","1","3","368.8999999985099","0","[""#48a782"",""#955db9""]","[""#7f5d5d"",""#5f6f81""]","[1440,900]","1","117","[0.524,0.623,0.426,0.298]","1","0","false","","",""
"","","","","","two-step-trial","122","456971","0.0-123.0-0.0","","","","","[0,1]","0","0","320.3999999985099","1","0","[0,1]","0","0","442.79999999701977","1","[""#48a782"",""#955db9""]","[""#7f5d5d"",""#5f6f81""]","[1440,900]","1","118","[0.512,0.652,0.411,0.294]","1","0","false","","",""
"","","","","","two-step-trial","123","459767","0.0-124.0-0.0","","","","","[0,1]","0","0","421.5","1","0","[0,1]","0","0","354.6000000014901","1","[""#48a782"",""#955db9""]","[""#7f5d5d"",""#5f6f81""]","[1440,900]","1","119","[0.502,0.652,0.413,0.344]","1","0","false","","",""
"","","","","","two-step-trial","124","462627","0.0-125.0-0.0","","","","","[0,1]","0","0","404.09999999403954","1","0","[0,1]","0","0","439.19999999552965","1","[""#48a782"",""#955db9""]","[""#7f5d5d"",""#5f6f81""]","[1440,900]","1","120","[0.482,0.631,0.394,0.33]","1","0","false","","",""
"","","","","","two-step-trial","125","465351","0.0-126.0-0.0","","","","","[0,1]","0","0","366.69999999552965","1","0","[0,1]","0","0","342.1000000014901","0","[""#48a782"",""#955db9""]","[""#7f5d5d"",""#5f6f81""]","[1440,900]","1","121","[0.447,0.633,0.361,0.325]","1","0","false","","",""
"","","","","","two-step-trial","126","467958","0.0-127.0-0.0","","","","","[0,1]","1","1","304.80000000447035","1","1","[2,3]","0","2","279.79999999701977","1","[""#48a782"",""#955db9""]","[""#7f5d5d"",""#5f6f81""]","[1440,900]","1","122","[0.451,0.597,0.354,0.284]","1","0","false","","",""
"","","","","","two-step-trial","127","470567","0.0-128.0-0.0","","","","","[0,1]","1","1","290.79999999701977","1","1","[2,3]","0","2","302.19999999552965","0","[""#48a782"",""#955db9""]","[""#7f5d5d"",""#5f6f81""]","[1440,900]","1","123","[0.511,0.55,0.353,0.29]","1","0","false","","",""
"","","","","","two-step-trial","128","473311","0.0-129.0-0.0","","","","","[0,1]","0","0","429.30000000447035","1","0","[0,1]","1","1","289.5","0","[""#48a782"",""#955db9""]","[""#7f5d5d"",""#5f6f81""]","[1440,900]","1","124","[0.523,0.509,0.361,0.326]","1","0","false","","",""
"","","","","","two-step-trial","129","476612","0.0-130.0-0.0","","","","","[0,1]","1","1","1021","1","1","[2,3]","0","2","265.69999999552965","0","[""#48a782"",""#955db9""]","[""#7f5d5d"",""#5f6f81""]","[1440,900]","1","125","[0.519,0.49,0.295,0.344]","1","0","false","","",""
"","","","","","two-step-trial","130","479247","0.0-131.0-0.0","","","","","[0,1]","0","0","320.20000000298023","1","0","[0,1]","1","1","294.1000000014901","1","[""#48a782"",""#955db9""]","[""#7f5d5d"",""#5f6f81""]","[1440,900]","1","126","[0.525,0.444,0.287,0.34]","1","0","false","","",""
"","","","","","two-step-trial","131","481871","0.0-132.0-0.0","","","","","[0,1]","0","0","294.30000000447035","1","0","[0,1]","1","1","304.79999999701977","0","[""#48a782"",""#955db9""]","[""#7f5d5d"",""#5f6f81""]","[1440,900]","1","127","[0.473,0.463,0.278,0.293]","1","0","false","","",""
"","","","","","two-step-trial","132","484447","0.0-133.0-0.0","","","","","[0,1]","1","1","262.30000000447035","1","1","[2,3]","0","2","290.5","1","[""#48a782"",""#955db9""]","[""#7f5d5d"",""#5f6f81""]","[1440,900]","1","128","[0.496,0.47,0.277,0.271]","1","0","false","","",""
"","","","","","two-step-trial","133","487014","0.0-134.0-0.0","","","","","[0,1]","1","1","219.70000000298023","1","1","[2,3]","0","2","333.6000000014901","0","[""#48a782"",""#955db9""]","[""#7f5d5d"",""#5f6f81""]","[1440,900]","1","129","[0.477,0.48,0.264,0.281]","1","0","false","","",""
"","","","","","two-step-trial","134","490115","0.0-135.0-0.0","","","","","[0,1]","1","1","354.5","1","1","[2,3]","1","3","733.8999999985099","0","[""#48a782"",""#955db9""]","[""#7f5d5d"",""#5f6f81""]","[1440,900]","1","130","[0.494,0.486,0.258,0.258]","1","0","false","","",""
"","","","","","two-step-trial","135","492783","0.0-136.0-0.0","","","","","[0,1]","0","0","292","1","0","[0,1]","0","0","357.59999999403954","0","[""#48a782"",""#955db9""]","[""#7f5d5d"",""#5f6f81""]","[1440,900]","1","131","[0.493,0.471,0.325,0.274]","1","0","false","","",""
"","","","","","two-step-trial","136","495615","0.0-137.0-0.0","","","","","[0,1]","1","1","397.79999999701977","1","1","[2,3]","0","2","421.19999999552965","0","[""#48a782"",""#955db9""]","[""#7f5d5d"",""#5f6f81""]","[1440,900]","1","132","[0.495,0.414,0.29,0.261]","1","0","false","","",""
"","","","","","two-step-trial","137","498194","0.0-138.0-0.0","","","","","[0,1]","0","0","283.70000000298023","1","0","[0,1]","0","0","283.6000000014901","0","[""#48a782"",""#955db9""]","[""#7f5d5d"",""#5f6f81""]","[1440,900]","1","133","[0.486,0.393,0.318,0.253]","1","0","false","","",""
"","","","","","two-step-trial","138","501495","0.0-139.0-0.0","","","","","[0,1]","1","1","1042.6000000014901","1","1","[2,3]","1","3","230.90000000596046","0","[""#48a782"",""#955db9""]","[""#7f5d5d"",""#5f6f81""]","[1440,900]","1","134","[0.485,0.381,0.329,0.268]","1","0","false","","",""
"","","","","","two-step-trial","139","504143","0.0-140.0-0.0","","","","","[0,1]","0","0","327.90000000596046","1","0","[0,1]","0","0","304.69999999552965","0","[""#48a782"",""#955db9""]","[""#7f5d5d"",""#5f6f81""]","[1440,900]","1","135","[0.476,0.33,0.348,0.266]","1","0","false","","",""
"","","","","","two-step-trial","140","506774","0.0-141.0-0.0","","","","","[0,1]","1","1","288.6000000014901","1","1","[2,3]","0","2","330.79999999701977","0","[""#48a782"",""#955db9""]","[""#7f5d5d"",""#5f6f81""]","[1440,900]","1","136","[0.408,0.356,0.348,0.276]","1","0","false","","",""
"","","","","","two-step-trial","141","509335","0.0-142.0-0.0","","","","","[0,1]","0","0","272.5","1","0","[0,1]","0","0","265.20000000298023","1","[""#48a782"",""#955db9""]","[""#7f5d5d"",""#5f6f81""]","[1440,900]","1","137","[0.444,0.402,0.328,0.271]","1","0","false","","",""
"","","","","","two-step-trial","142","512083","0.0-143.0-0.0","","","","","[0,1]","0","0","325.30000000447035","1","0","[0,1]","0","0","407.5","0","[""#48a782"",""#955db9""]","[""#7f5d5d"",""#5f6f81""]","[1440,900]","1","138","[0.443,0.378,0.381,0.256]","1","0","false","","",""
"","","","","","two-step-trial","143","514914","0.0-144.0-0.0","","","","","[0,1]","0","0","290.1000000014901","1","0","[0,1]","1","1","530.7000000029802","1","[""#48a782"",""#955db9""]","[""#7f5d5d"",""#5f6f81""]","[1440,900]","1","139","[0.465,0.376,0.423,0.302]","1","0","false","","",""
"","","","","","two-step-trial","144","518086","0.0-145.0-0.0","","","","","[0,1]","0","0","570.0999999940395","0","1","[2,3]","1","3","571.7999999970198","0","[""#48a782"",""#955db9""]","[""#7f5d5d"",""#5f6f81""]","[1440,900]","1","140","[0.503,0.356,0.419,0.307]","1","0","false","","",""
"","","","","","two-step-trial","145","521830","0.0-146.0-0.0","","","","","[0,1]","0","0","1373.6999999955297","1","0","[0,1]","0","0","346.90000000596046","0","[""#48a782"",""#955db9""]","[""#7f5d5d"",""#5f6f81""]","[1440,900]","1","141","[0.498,0.362,0.406,0.333]","1","0","false","","",""
"","","","","","two-step-trial","146","524556","0.0-147.0-0.0","","","","","[0,1]","1","1","318","1","1","[2,3]","1","3","385.1000000014901","0","[""#48a782"",""#955db9""]","[""#7f5d5d"",""#5f6f81""]","[1440,900]","1","142","[0.462,0.376,0.412,0.337]","1","0","false","","",""
"","","","","","two-step-trial","147","527478","0.0-148.0-0.0","","","","","[0,1]","1","1","471.3999999985099","1","1","[2,3]","0","2","425.80000000447035","1","[""#48a782"",""#955db9""]","[""#7f5d5d"",""#5f6f81""]","[1440,900]","1","143","[0.494,0.345,0.399,0.358]","1","0","false","","",""
"","","","","","two-step-trial","148","530370","0.0-149.0-0.0","","","","","[0,1]","1","1","495.30000000447035","1","1","[2,3]","0","2","377","0","[""#48a782"",""#955db9""]","[""#7f5d5d"",""#5f6f81""]","[1440,900]","1","144","[0.471,0.35,0.398,0.37]","1","0","false","","",""
"","","","","","two-step-trial","149","533004","0.0-150.0-0.0","","","","","[0,1]","0","0","304.1000000014901","1","0","[0,1]","1","1","316.20000000298023","1","[""#48a782"",""#955db9""]","[""#7f5d5d"",""#5f6f81""]","[1440,900]","1","145","[0.465,0.328,0.41,0.376]","1","0","false","","",""
"","","","","","two-step-trial","150","535698","0.0-151.0-0.0","","","","","[0,1]","0","0","302.69999999552965","1","0","[0,1]","1","1","382.3999999985099","0","[""#48a782"",""#955db9""]","[""#7f5d5d"",""#5f6f81""]","[1440,900]","1","146","[0.465,0.323,0.402,0.384]","1","0","false","","",""
"","","","","","two-step-trial","151","538301","0.0-152.0-0.0","","","","","[0,1]","0","0","302.79999999701977","1","0","[0,1]","0","0","283.80000000447035","0","[""#48a782"",""#955db9""]","[""#7f5d5d"",""#5f6f81""]","[1440,900]","1","147","[0.464,0.338,0.408,0.409]","1","0","false","","",""
"","","","","","two-step-trial","152","540881","0.0-153.0-0.0","","","","","[0,1]","1","1","205.10000000149012","0","0","[0,1]","0","0","362.1000000014901","0","[""#48a782"",""#955db9""]","[""#7f5d5d"",""#5f6f81""]","[1440,900]","1","148","[0.439,0.323,0.426,0.358]","1","0","false","","",""
"","","","","","two-step-trial","153","543266","0.0-154.0-0.0","","","","","[0,1]","1","1","280.79999999701977","0","0","[0,1]","1","1","89.60000000149012","1","[""#48a782"",""#955db9""]","[""#7f5d5d"",""#5f6f81""]","[1440,900]","1","149","[0.413,0.342,0.4,0.33]","1","0","false","","",""
"","","","","","two-step-trial","154","545734","0.0-155.0-0.0","","","","","[0,1]","0","0","159.80000000447035","1","0","[0,1]","1","1","292.69999999552965","0","[""#48a782"",""#955db9""]","[""#7f5d5d"",""#5f6f81""]","[1440,900]","1","150","[0.421,0.338,0.389,0.35]","1","0","false","","",""
"","","","","","two-step-instructions","155","548429","0.0-156.0","2689.7000000029802","","","[{""page_index"":0,""viewing_time"":2689.39999999851}]","","","","","","","","","","","","","","","","","","","","","","",""
"","","","","","two-step-comprehension","156","560814","0.0-157.0","12377.40000000596","","","","","","","","","","","","","","","","","","","","","","","","[""green"",""purple""]","0","[{""event"":""fullscreenenter"",""trial"":1,""time"":3172}]"
