"success","timeout","failed_images","failed_audio","failed_video","trial_type","trial_index","time_elapsed","internal_node_id","rt","stimulus","response","view_history","responses","num_errors","quiz","phase","state_2_ids","state_2_key","state_2_choice","state_2_rt","outcome","screen_resolution","minimum_resolution","state_1_ids","state_1_key","state_1_choice","state_1_rt","transition","state","rocket_colors","planet_colors","trial","missing","drifts","drift_ix","browser_interactions","interactions"
"true","false","[]","[]","[]","preload","0","180","0.0-0.0","","","","","","","","","","","","","","","","","","","","","","","","","","","","",""
"true","","","","","fullscreen","1","8857","0.0-1.0","","","","","","","","","","","","","","","","","","","","","","","","","","","","",""
"","","","","","html-keyboard-response","2","18932","0.0-2.0","10074","<p>You are starting a demo of the <b>two-step task.</b></p><p>To see the instructions, press the ""1"" key. To skip them, press the ""2"" key.</p>","1","","","","","","","","","","","","","","","","","","","","","","","","","",""
"","","","","","two-step-instructions","3","98365","0.0-3.0-0.0-1.0","79431","","","[{""page_index"":0,""viewing_time"":14246},{""page_index"":1,""viewing_time"":6851.000000000007},{""page_index"":2,""viewing_time"":3401.9999999999927},{""page_index"":3,""viewing_time"":7184},{""page_index"":4,""viewing_time"":8120},{""page_index"":5,""viewing_time"":3535.0000000000073},{""page_index"":6,""viewing_time"":2200},{""page_index"":7,""viewing_time"":5761.999999999993},{""page_index"":8,""viewing_time"":9725},{""page_index"":9,""viewing_time"":14205},{""page_index"":10,""viewing_time"":4201}]","","","","","","","","","","","","","","","","","","","","","","","","",""
"","","","","","two-step-comprehension","4","116593","0.0-3.0-0.0-2.0","18224.999999999985","","","","[""left/right arrow keys"",""True"",""True""]","0","1","","","","","","","","","","","","","","","","","","","","","",""
"","","","","","two-step-instructions","5","125974","0.0-3.0-1.0-0.0-0.0","9378","","","[{""page_index"":0,""viewing_time"":9378}]","","","","instructions_1b","","","","","","","","","","","","","","","","","","","","",""
"","","","","","alien-practice","6","129752","0.0-3.0-1.0-1.0-0.0","","","","","","","","","[0,1]","0","0","1574.9999999999854","0","[2560,1416]","1","","","","","","","","","","","","","",""
"","","","","","alien-practice","7","133432","0.0-3.0-1.0-2.0-0.0","","","","","","","","","[0,1]","1","1","1476","0","[2560,1416]","1","","","","","","","","","","","","","",""
"","","","","","alien-practice","8","141803","0.0-3.0-1.0-3.0-0.0","","","","","","","","","[0,1]","0","0","6166","0","[2560,1416]","1","","","","","","","","","","","","","",""
"","","","","","alien-practice","9","144828","0.0-3.0-1.0-4.0-0.0","","","","","","","","","[0,1]","0","0","822","0","[2560,1416]","1","","","","","","","","","","","","","",""
"","","","","","alien-practice","10","147652","0.0-3.0-1.0-5.0-0.0","","","","","","","","","[0,1]","1","1","619","1","[2560,1416]","1","","","","","","","","","","","","","",""
"","","","","","alien-practice","11","150330","0.0-3.0-1.0-6.0-0.0","","","","","","","","","[0,1]","1","1","473.0000000000291","1","[2560,1416]","1","","","","","","","","","","","","","",""
"","","","","","alien-practice","12","153007","0.0-3.0-1.0-7.0-0.0","","","","","","","","","[0,1]","1","1","473","1","[2560,1416]","1","","","","","","","","","","","","","",""
"","","","","","two-step-instructions","13","232623","0.0-3.0-2.0-1.0","79613.00000000003","","","[{""page_index"":0,""viewing_time"":5890},{""page_index"":1,""viewing_time"":3985.000000000029},{""page_index"":2,""viewing_time"":38009.99999999997},{""page_index"":3,""viewing_time"":21042},{""page_index"":4,""viewing_time"":5451},{""page_index"":5,""viewing_time"":5235.000000000029}]","","","","","","","","","","","","","","","","","","","","","","","","",""
"","","","","","two-step-comprehension","14","243828","0.0-3.0-2.0-2.0","11201","","","","[""left/right arrow keys"",""False"",""True""]","0","2","","","","","","","","","","","","","","","","","","","","","",""
"","","","","","two-step-instructions","15","277054","0.0-3.0-3.0-0.0","33224","","","[{""page_index"":0,""viewing_time"":13117},{""page_index"":1,""viewing_time"":5501},{""page_index"":2,""viewing_time"":14605}]","","","","","","","","","","","","","","","","","","","","","","","","",""
"","","","","","two-step-trial","16","287875","0.0-3.0-3.0-1.0-0.0","","","","","","","","","[2,3]","0","2","6150","0","[2560,1416]","1","[0,1]","1","1","2665","1","1","[""#486ea7"",""#a75248""]","[""#5b7c65"",""#706081""]","0","false","","","",""
"","","","","","two-step-trial","17","297617","0.0-3.0-3.0-1.0-0.1","","","","","","","","","[2,3]","1","3","4453","1","[2560,1416]","1","[0,1]","1","1","3285.000000000058","1","1","[""#486ea7"",""#a75248""]","[""#5b7c65"",""#706081""]","0","false","","","",""
"","","","","","two-step-trial","18","309058","0.0-3.0-3.0-1.0-0.2","","","","","","","","","[0,1]","0","0","6173","1","[2560,1416]","1","[0,1]","1","1","3263","0","0","[""#486ea7"",""#a75248""]","[""#5b7c65"",""#706081""]","0","false","","","",""
"","","","","","two-step-trial","19","317293","0.0-3.0-3.0-1.0-0.3","","","","","","","","","[2,3]","1","3","2732","1","[2560,1416]","1","[0,1]","1","1","3500","1","1","[""#486ea7"",""#a75248""]","[""#5b7c65"",""#706081""]","0","false","","","",""
"","","","","","two-step-trial","20","321322","0.0-3.0-3.0-1.0-0.4","","","","","","","","","[2,3]","1","3","830","1","[2560,1416]","1","[0,1]","1","1","1194.0000000000582","1","1","[""#486ea7"",""#a75248""]","[""#5b7c65"",""#706081""]","0","false","","","",""
"","","","","","two-step-trial","21","324967","0.0-3.0-3.0-1.0-0.5","","","","","","","","","[2,3]","1","3","729","1","[2560,1416]","1","[0,1]","1","1","911","1","1","[""#486ea7"",""#a75248""]","[""#5b7c65"",""#706081""]","0","false","","","",""
"","","","","","two-step-trial","22","328184","0.0-3.0-3.0-1.0-0.6","","","","","","","","","[2,3]","1","3","503","1","[2560,1416]","1","[0,1]","1","1","708","1","1","[""#486ea7"",""#a75248""]","[""#5b7c65"",""#706081""]","0","false","","","",""
"","","","","","two-step-trial","23","331941","0.0-3.0-3.0-1.0-0.7","","","","","","","","","[2,3]","1","3","1077","1","[2560,1416]","1","[0,1]","1","1","674.9999999999418","1","1","[""#486ea7"",""#a75248""]","[""#5b7c65"",""#706081""]","0","false","","","",""
"","","","","","two-step-trial","24","335047","0.0-3.0-3.0-1.0-0.8","","","","","","","","","[2,3]","1","3","480.9999999999418","1","[2560,1416]","1","[0,1]","1","1","620","1","1","[""#486ea7"",""#a75248""]","[""#5b7c65"",""#706081""]","0","false","","","",""
"","","","","","two-step-trial","25","338219","0.0-3.0-3.0-1.0-0.9","","","","","","","","","[2,3]","1","3","538","1","[2560,1416]","1","[0,1]","1","1","631","1","1","[""#486ea7"",""#a75248""]","[""#5b7c65"",""#706081""]","0","false","","","",""
"","","","","","two-step-instructions","26","432234","0.0-3.0-4.0-1.0","94012","","","[{""page_index"":0,""viewing_time"":4667.999999999942},{""page_index"":1,""viewing_time"":5727},{""page_index"":2,""viewing_time"":3015},{""page_index"":3,""viewing_time"":4680},{""page_index"":4,""viewing_time"":34875},{""page_index"":5,""viewing_time"":32993},{""page_index"":6,""viewing_time"":8054.000000000058}]","","","","","","","","","","","","","","","","","","","","","","","","",""
"","","","","","two-step-comprehension","27","448890","0.0-3.0-4.0-2.0","16652","","","","[""True"",""False"",""True""]","0","3","","","","","","","","","","","","","","","","","","","","","",""
"","","","","","two-step-instructions","28","470912","0.0-4.0","22020.00000000006","","","[{""page_index"":0,""viewing_time"":3581},{""page_index"":1,""viewing_time"":7786},{""page_index"":2,""viewing_time"":10653.000000000058}]","","","","","","","","","","","","","","","","","","","","","","","","",""
"","","","","","two-step-trial","29","480557","0.0-5.0-0.0","","","","","","","","","[2,3]","1","3","1899","0","[2560,1416]","1","[0,1]","1","1","5742","1","1","[""#48a782"",""#955db9""]","[""#5f6f81"",""#7f5d5d""]","1","false","[0.6,0.51,0.387,0.388]","0","0",""
"","","","","","two-step-trial","30","492966","0.0-6.0-0.0","","","","","","","","","[2,3]","0","2","6375.999999999942","0","[2560,1416]","1","[0,1]","1","1","4028","1","1","[""#48a782"",""#955db9""]","[""#5f6f81"",""#7f5d5d""]","2","false","[0.6,0.49,0.376,0.364]","0","0",""
"","","","","","two-step-trial","31","506297","0.0-7.0-0.0","","","","","","","","","[0,1]","1","1","6905","0","[2560,1416]","1","[0,1]","0","0","4422","1","0","[""#48a782"",""#955db9""]","[""#5f6f81"",""#7f5d5d""]","3","false","[0.612,0.488,0.376,0.385]","0","0",""
"","","","","","two-step-trial","32","515522","0.0-8.0-0.0","","","","","","","","","[2,3]","1","3","4317.000000000058","0","[2560,1416]","1","[0,1]","0","0","2902.999999999942","0","1","[""#48a782"",""#955db9""]","[""#5f6f81"",""#7f5d5d""]","4","false","[0.659,0.517,0.37,0.352]","0","0",""
"","","","","","two-step-trial","33","521866","0.0-9.0-0.0","","","","","","","","","[0,1]","0","0","3350.000000000058","1","[2560,1416]","1","[0,1]","0","0","990","1","0","[""#48a782"",""#955db9""]","[""#5f6f81"",""#7f5d5d""]","5","false","[0.676,0.497,0.349,0.378]","0","0",""
"","","","","","two-step-trial","34","527222","0.0-10.0-0.0","","","","","","","","","[0,1]","0","0","885","0","[2560,1416]","1","[0,1]","0","0","2464.999999999942","1","0","[""#48a782"",""#955db9""]","[""#5f6f81"",""#7f5d5d""]","6","false","[0.682,0.475,0.347,0.386]","0","0",""
"","","","","","two-step-trial","35","536492","0.0-11.0-0.0","","","","","","","","","[2,3]","0","2","3901","0","[2560,1416]","1","[0,1]","0","0","3364","0","1","[""#48a782"",""#955db9""]","[""#5f6f81"",""#7f5d5d""]","7","false","[0.65,0.473,0.346,0.344]","0","0",""
"","","","","","two-step-trial","36","544671","0.0-12.0-0.0","","","","","","","","","[0,1]","0","0","2305","1","[2560,1416]","1","[0,1]","0","0","3871","1","0","[""#48a782"",""#955db9""]","[""#5f6f81"",""#7f5d5d""]","8","false","[0.637,0.456,0.371,0.318]","0","0",""
"","","","","","two-step-trial","37","548451","0.0-13.0-0.0","","","","","","","","","[0,1]","0","0","876","1","[2560,1416]","1","[0,1]","0","0","901","1","0","[""#48a782"",""#955db9""]","[""#5f6f81"",""#7f5d5d""]","9","false","[0.637,0.443,0.354,0.311]","0","0",""
"","","","","","two-step-trial","38","551984","0.0-14.0-0.0","","","","","","","","","[0,1]","0","0","921","0","[2560,1416]","1","[0,1]","0","0","608","1","0","[""#48a782"",""#955db9""]","[""#5f6f81"",""#7f5d5d""]","10","false","[0.63,0.435,0.315,0.32]","0","0",""
"","","","","","two-step-trial","39","562042","0.0-15.0-0.0","","","","","","","","","[0,1]","0","0","2226","1","[2560,1416]","1","[0,1]","0","0","5827","1","0","[""#48a782"",""#955db9""]","[""#5f6f81"",""#7f5d5d""]","11","false","[0.599,0.48,0.291,0.32]","0","0",""
"","","","","","two-step-trial","40","565169","0.0-16.0-0.0","","","","","","","","","[0,1]","0","0","413","1","[2560,1416]","1","[0,1]","0","0","708.0000000001164","1","0","[""#48a782"",""#955db9""]","[""#5f6f81"",""#7f5d5d""]","12","false","[0.573,0.445,0.3,0.33]","0","0",""
"","","","","","two-step-trial","41","568117","0.0-17.0-0.0","","","","","","","","","[0,1]","0","0","505","0","[2560,1416]","1","[0,1]","0","0","439","1","0","[""#48a782"",""#955db9""]","[""#5f6f81"",""#7f5d5d""]","13","false","[0.6,0.4,0.3,0.32]","0","0",""
"","","","","","two-step-trial","42","574350","0.0-18.0-0.0","","","","","","","","","[2,3]","1","3","3068.9999999998836","0","[2560,1416]","1","[0,1]","0","0","1159","0","1","[""#48a782"",""#955db9""]","[""#5f6f81"",""#7f5d5d""]","14","false","[0.601,0.428,0.308,0.274]","0","0",""
"","","","","","two-step-trial","43","578624","0.0-19.0-0.0","","","","","","","","","[0,1]","0","0","1122.9999999998836","0","[2560,1416]","1","[0,1]","0","0","1148","1","0","[""#48a782"",""#955db9""]","[""#5f6f81"",""#7f5d5d""]","15","false","[0.588,0.441,0.345,0.295]","0","0",""
"","","","","","two-step-trial","44","589132","0.0-20.0-0.0","","","","","","","","","[0,1]","0","0","6907","1","[2560,1416]","1","[0,1]","1","1","1598","0","0","[""#48a782"",""#955db9""]","[""#5f6f81"",""#7f5d5d""]","16","false","[0.641,0.463,0.39,0.301]","0","0",""
"","","","","","two-step-trial","45","597366","0.0-21.0-0.0","","","","","","","","","[2,3]","1","3","4936","1","[2560,1416]","1","[0,1]","1","1","1294","1","1","[""#48a782"",""#955db9""]","[""#5f6f81"",""#7f5d5d""]","17","false","[0.649,0.465,0.413,0.325]","0","0",""
"","","","","","two-step-trial","46","601102","0.0-22.0-0.0","","","","","","","","","[2,3]","1","3","763","1","[2560,1416]","1","[0,1]","1","1","969","1","1","[""#48a782"",""#955db9""]","[""#5f6f81"",""#7f5d5d""]","18","false","[0.627,0.478,0.397,0.324]","0","0",""
"","","","","","two-step-trial","47","606558","0.0-23.0-0.0","","","","","","","","","[0,1]","0","0","2889","0","[2560,1416]","1","[0,1]","1","1","563","0","0","[""#48a782"",""#955db9""]","[""#5f6f81"",""#7f5d5d""]","19","false","[0.656,0.491,0.375,0.348]","0","0",""
"","","","","","two-step-trial","48","610901","0.0-24.0-0.0","","","","","","","","","[0,1]","1","1","1100.0000000001164","0","[2560,1416]","1","[0,1]","1","1","1239","0","0","[""#48a782"",""#955db9""]","[""#5f6f81"",""#7f5d5d""]","20","false","[0.64,0.468,0.396,0.335]","0","0",""
"","","","","","two-step-trial","49","614479","0.0-25.0-0.0","","","","","","","","","[2,3]","1","3","706","0","[2560,1416]","1","[0,1]","1","1","867","1","1","[""#48a782"",""#955db9""]","[""#5f6f81"",""#7f5d5d""]","21","false","[0.633,0.467,0.352,0.33]","0","0",""
"","","","","","two-step-trial","50","619362","0.0-26.0-0.0","","","","","","","","","[2,3]","1","3","448","0","[2560,1416]","1","[0,1]","1","1","2431","1","1","[""#48a782"",""#955db9""]","[""#5f6f81"",""#7f5d5d""]","22","false","[0.591,0.462,0.379,0.373]","0","0",""
"","","","","","two-step-trial","51","627574","0.0-27.0-0.0","","","","","","","","","[0,1]","0","0","4037.0000000001164","1","[2560,1416]","1","[0,1]","0","0","2171","1","0","[""#48a782"",""#955db9""]","[""#5f6f81"",""#7f5d5d""]","23","false","[0.612,0.436,0.44,0.331]","0","0",""
"","","","","","two-step-trial","52","630724","0.0-28.0-0.0","","","","","","","","","[0,1]","0","0","335","0","[2560,1416]","1","[0,1]","0","0","811","1","0","[""#48a782"",""#955db9""]","[""#5f6f81"",""#7f5d5d""]","24","false","[0.612,0.434,0.473,0.352]","0","0",""
"","","","","","two-step-trial","53","634178","0.0-29.0-0.0","","","","","","","","","[0,1]","1","1","572","1","[2560,1416]","1","[0,1]","0","0","878","1","0","[""#48a782"",""#955db9""]","[""#5f6f81"",""#7f5d5d""]","25","false","[0.568,0.394,0.47,0.342]","0","0",""
"","","","","","two-step-trial","54","641264","0.0-30.0-0.0","","","","","","","","","[2,3]","1","3","4148","0","[2560,1416]","1","[0,1]","0","0","932.9999999998836","0","1","[""#48a782"",""#955db9""]","[""#5f6f81"",""#7f5d5d""]","26","false","[0.601,0.434,0.455,0.342]","0","0",""
"","","","","","two-step-trial","55","644145","0.0-31.0-0.0","","","","","","","","","[0,1]","1","1","437","1","[2560,1416]","1","[0,1]","0","0","440","1","0","[""#48a782"",""#955db9""]","[""#5f6f81"",""#7f5d5d""]","27","false","[0.539,0.464,0.435,0.334]","0","0",""
"","","","","","two-step-trial","56","647768","0.0-32.0-0.0","","","","","","","","","[2,3]","0","2","1235","1","[2560,1416]","1","[0,1]","0","0","382","0","1","[""#48a782"",""#955db9""]","[""#5f6f81"",""#7f5d5d""]","28","false","[0.523,0.476,0.415,0.352]","0","0",""
"","","","","","two-step-trial","57","652143","0.0-33.0-0.0","","","","","","","","","[2,3]","0","2","1089.9999999998836","0","[2560,1416]","1","[0,1]","0","0","1282","0","1","[""#48a782"",""#955db9""]","[""#5f6f81"",""#7f5d5d""]","29","false","[0.515,0.504,0.459,0.339]","0","0",""
"","","","","","two-step-trial","58","655924","0.0-34.0-0.0","","","","","","","","","[2,3]","0","2","844.0000000001164","1","[2560,1416]","1","[0,1]","0","0","933","0","1","[""#48a782"",""#955db9""]","[""#5f6f81"",""#7f5d5d""]","30","false","[0.491,0.488,0.491,0.323]","0","0",""
"","","","","","two-step-trial","59","660277","0.0-35.0-0.0","","","","","","","","","[0,1]","1","1","1134","1","[2560,1416]","1","[0,1]","0","0","1215","1","0","[""#48a782"",""#955db9""]","[""#5f6f81"",""#7f5d5d""]","31","false","[0.478,0.502,0.474,0.353]","0","0",""
"","","","","","two-step-trial","60","664091","0.0-36.0-0.0","","","","","","","","","[0,1]","1","1","852","1","[2560,1416]","1","[0,1]","0","0","957","1","0","[""#48a782"",""#955db9""]","[""#5f6f81"",""#7f5d5d""]","32","false","[0.459,0.453,0.457,0.338]","0","0",""
"","","","","","two-step-trial","61","667737","0.0-37.0-0.0","","","","","","","","","[0,1]","1","1","615","0","[2560,1416]","1","[0,1]","0","0","1025","1","0","[""#48a782"",""#955db9""]","[""#5f6f81"",""#7f5d5d""]","33","false","[0.435,0.461,0.485,0.304]","0","0",""
"","","","","","two-step-trial","62","672057","0.0-38.0-0.0","","","","","","","","","[0,1]","1","1","1650.9999999998836","1","[2560,1416]","1","[0,1]","0","0","664","1","0","[""#48a782"",""#955db9""]","[""#5f6f81"",""#7f5d5d""]","34","false","[0.425,0.445,0.448,0.302]","0","0",""
"","","","","","two-step-trial","63","676782","0.0-39.0-0.0","","","","","","","","","[2,3]","1","3","2056","0","[2560,1416]","1","[0,1]","0","0","664.0000000001164","0","1","[""#48a782"",""#955db9""]","[""#5f6f81"",""#7f5d5d""]","35","false","[0.398,0.417,0.401,0.285]","0","0",""
"","","","","","two-step-trial","64","680708","0.0-40.0-0.0","","","","","","","","","[2,3]","0","2","639.0000000001164","1","[2560,1416]","1","[0,1]","0","0","1283","0","1","[""#48a782"",""#955db9""]","[""#5f6f81"",""#7f5d5d""]","36","false","[0.438,0.401,0.404,0.302]","0","0",""
"","","","","","two-step-trial","65","684027","0.0-41.0-0.0","","","","","","","","","[0,1]","1","1","505","0","[2560,1416]","1","[0,1]","0","0","812.0000000001164","1","0","[""#48a782"",""#955db9""]","[""#5f6f81"",""#7f5d5d""]","37","false","[0.446,0.383,0.396,0.273]","0","0",""
"","","","","","two-step-trial","66","686896","0.0-42.0-0.0","","","","","","","","","[2,3]","0","2","458","1","[2560,1416]","1","[0,1]","0","0","405","0","1","[""#48a782"",""#955db9""]","[""#5f6f81"",""#7f5d5d""]","38","false","[0.473,0.425,0.406,0.259]","0","0",""
"","","","","","two-step-trial","67","690868","0.0-43.0-0.0","","","","","","","","","[2,3]","0","2","1314","0","[2560,1416]","1","[0,1]","0","0","653","0","1","[""#48a782"",""#955db9""]","[""#5f6f81"",""#7f5d5d""]","39","false","[0.491,0.414,0.381,0.251]","0","0",""
"","","","","","two-step-trial","68","694468","0.0-44.0-0.0","","","","","","","","","[2,3]","0","2","808","0","[2560,1416]","1","[0,1]","0","0","788","0","1","[""#48a782"",""#955db9""]","[""#5f6f81"",""#7f5d5d""]","40","false","[0.46,0.404,0.375,0.267]","0","0",""
"","","","","","two-step-trial","69","697470","0.0-45.0-0.0","","","","","","","","","[0,1]","0","0","447","0","[2560,1416]","1","[0,1]","0","0","551","1","0","[""#48a782"",""#955db9""]","[""#5f6f81"",""#7f5d5d""]","41","false","[0.47,0.46,0.37,0.279]","0","0",""
"","","","","","two-step-trial","70","701115","0.0-46.0-0.0","","","","","","","","","[0,1]","1","1","762","0","[2560,1416]","1","[0,1]","0","0","879","1","0","[""#48a782"",""#955db9""]","[""#5f6f81"",""#7f5d5d""]","42","false","[0.454,0.461,0.369,0.275]","0","0",""
"","","","","","two-step-trial","71","704908","0.0-47.0-0.0","","","","","","","","","[0,1]","1","1","819","0","[2560,1416]","1","[0,1]","0","0","969","1","0","[""#48a782"",""#955db9""]","[""#5f6f81"",""#7f5d5d""]","43","false","[0.452,0.459,0.392,0.293]","0","0",""
"","","","","","two-step-trial","72","708845","0.0-48.0-0.0","","","","","","","","","[0,1]","1","1","1472","0","[2560,1416]","1","[0,1]","0","0","462","1","0","[""#48a782"",""#955db9""]","[""#5f6f81"",""#7f5d5d""]","44","false","[0.439,0.428,0.412,0.329]","0","0",""
"","","","","","two-step-trial","73","712839","0.0-49.0-0.0","","","","","","","","","[2,3]","1","3","1460","0","[2560,1416]","1","[0,1]","1","1","530","1","1","[""#48a782"",""#955db9""]","[""#5f6f81"",""#7f5d5d""]","45","false","[0.455,0.384,0.41,0.354]","0","0",""
"","","","","","two-step-trial","74","715899","0.0-50.0-0.0","","","","","","","","","[0,1]","0","0","370","1","[2560,1416]","1","[0,1]","1","1","686","0","0","[""#48a782"",""#955db9""]","[""#5f6f81"",""#7f5d5d""]","46","false","[0.471,0.375,0.394,0.336]","0","0",""
"","","","","","two-step-trial","75","720174","0.0-51.0-0.0","","","","","","","","","[2,3]","0","2","1200.9999999998836","0","[2560,1416]","1","[0,1]","1","1","1070","1","1","[""#48a782"",""#955db9""]","[""#5f6f81"",""#7f5d5d""]","47","false","[0.423,0.325,0.351,0.294]","0","0",""
"","","","","","two-step-trial","76","735179","0.0-52.0-0.0","","","","","","","","","[0,1]","null","null","null","null","[2560,1416]","1","[0,1]","null","null","null","1","null","[""#48a782"",""#955db9""]","[""#5f6f81"",""#7f5d5d""]","48","true","[0.458,0.334,0.355,0.324]","0","0",""
"","","","","","two-step-trial","77","738928","0.0-52.1-0.1","","","","","","","","","[2,3]","1","3","448","1","[2560,1416]","1","[0,1]","1","1","1296.9999999998836","1","1","[""#48a782"",""#955db9""]","[""#5f6f81"",""#7f5d5d""]","48","false","[0.458,0.334,0.355,0.324]","0","0",""
"","","","","","two-step-trial","78","742326","0.0-53.0-0.0","","","","","","","","","[2,3]","1","3","549","0","[2560,1416]","1","[0,1]","1","1","843.9999999998836","1","1","[""#48a782"",""#955db9""]","[""#5f6f81"",""#7f5d5d""]","49","false","[0.502,0.353,0.35,0.322]","0","0",""
"","","","","","two-step-trial","79","745645","0.0-54.0-0.0","","","","","","","","","[2,3]","1","3","651","1","[2560,1416]","1","[0,1]","1","1","663","1","1","[""#48a782"",""#955db9""]","[""#5f6f81"",""#7f5d5d""]","50","false","[0.464,0.368,0.367,0.351]","0","0",""
"","","","","","two-step-trial","80","749436","0.0-55.0-0.0","","","","","","","","","[2,3]","0","2","1089","0","[2560,1416]","1","[0,1]","1","1","697","1","1","[""#48a782"",""#955db9""]","[""#5f6f81"",""#7f5d5d""]","51","false","[0.459,0.421,0.341,0.301]","0","0",""
"","","","","","two-step-trial","81","752733","0.0-56.0-0.0","","","","","","","","","[2,3]","0","2","414.0000000001164","1","[2560,1416]","1","[0,1]","1","1","878","1","1","[""#48a782"",""#955db9""]","[""#5f6f81"",""#7f5d5d""]","52","false","[0.496,0.401,0.388,0.295]","0","0",""
"","","","","","two-step-trial","82","761518","0.0-57.0-0.0","","","","","","","","","[0,1]","0","0","515","0","[2560,1416]","1","[0,1]","0","0","6266","1","0","[""#48a782"",""#955db9""]","[""#5f6f81"",""#7f5d5d""]","53","false","[0.476,0.391,0.373,0.273]","0","0",""
"","","","","","two-step-trial","83","764421","0.0-58.0-0.0","","","","","","","","","[0,1]","1","1","470","1","[2560,1416]","1","[0,1]","1","1","429","0","0","[""#48a782"",""#955db9""]","[""#5f6f81"",""#7f5d5d""]","54","false","[0.452,0.379,0.383,0.272]","0","0",""
"","","","","","two-step-trial","84","767549","0.0-59.0-0.0","","","","","","","","","[2,3]","0","2","425","0","[2560,1416]","1","[0,1]","1","1","698","1","1","[""#48a782"",""#955db9""]","[""#5f6f81"",""#7f5d5d""]","55","false","[0.448,0.393,0.401,0.289]","0","0",""
"","","","","","two-step-trial","85","771115","0.0-60.0-0.0","","","","","","","","","[2,3]","1","3","830","0","[2560,1416]","1","[0,1]","1","1","731.9999999998836","1","1","[""#48a782"",""#955db9""]","[""#5f6f81"",""#7f5d5d""]","56","false","[0.435,0.368,0.433,0.291]","0","0",""
"","","","","","two-step-trial","86","775682","0.0-61.0-0.0","","","","","","","","","[2,3]","0","2","526","0","[2560,1416]","1","[0,1]","1","1","2037","1","1","[""#48a782"",""#955db9""]","[""#5f6f81"",""#7f5d5d""]","57","false","[0.441,0.373,0.443,0.285]","0","0",""
"","","","","","two-step-trial","87","779080","0.0-62.0-0.0","","","","","","","","","[2,3]","0","2","649.9999999998836","0","[2560,1416]","1","[0,1]","1","1","744","1","1","[""#48a782"",""#955db9""]","[""#5f6f81"",""#7f5d5d""]","58","false","[0.418,0.389,0.42,0.282]","0","0",""
"","","","","","two-step-trial","88","782298","0.0-63.0-0.0","","","","","","","","","[2,3]","1","3","572","0","[2560,1416]","1","[0,1]","1","1","641.0000000001164","1","1","[""#48a782"",""#955db9""]","[""#5f6f81"",""#7f5d5d""]","59","false","[0.41,0.383,0.392,0.255]","0","0",""
"","","","","","two-step-trial","89","785549","0.0-64.0-0.0","","","","","","","","","[2,3]","0","2","413","0","[2560,1416]","1","[0,1]","1","1","833.0000000001164","1","1","[""#48a782"",""#955db9""]","[""#5f6f81"",""#7f5d5d""]","60","false","[0.426,0.384,0.354,0.267]","0","0",""
"","","","","","two-step-trial","90","788968","0.0-65.0-0.0","","","","","","","","","[0,1]","0","0","436","1","[2560,1416]","1","[0,1]","1","1","979.9999999998836","0","0","[""#48a782"",""#955db9""]","[""#5f6f81"",""#7f5d5d""]","61","false","[0.416,0.414,0.379,0.254]","0","0",""
"","","","","","two-step-trial","91","792006","0.0-66.0-0.0","","","","","","","","","[0,1]","0","0","470.0000000001164","1","[2560,1416]","1","[0,1]","1","1","563","0","0","[""#48a782"",""#955db9""]","[""#5f6f81"",""#7f5d5d""]","62","false","[0.353,0.414,0.383,0.26]","0","0",""
"","","","","","two-step-trial","92","794988","0.0-67.0-0.0","","","","","","","","","[0,1]","0","0","482","1","[2560,1416]","1","[0,1]","1","1","495","0","0","[""#48a782"",""#955db9""]","[""#5f6f81"",""#7f5d5d""]","63","false","[0.293,0.383,0.425,0.266]","0","0",""
"","","","","","two-step-trial","93","798239","0.0-68.0-0.0","","","","","","","","","[2,3]","1","3","887","0","[2560,1416]","1","[0,1]","1","1","361","1","1","[""#48a782"",""#955db9""]","[""#5f6f81"",""#7f5d5d""]","64","false","[0.288,0.362,0.432,0.275]","0","0",""
"","","","","","two-step-trial","94","801884","0.0-69.0-0.0","","","","","","","","","[0,1]","0","0","864","0","[2560,1416]","1","[0,1]","1","1","777","0","0","[""#48a782"",""#955db9""]","[""#5f6f81"",""#7f5d5d""]","65","false","[0.297,0.363,0.457,0.29]","0","0",""
"","","","","","two-step-trial","95","805327","0.0-70.0-0.0","","","","","","","","","[2,3]","1","3","1067","0","[2560,1416]","1","[0,1]","1","1","371.0000000001164","1","1","[""#48a782"",""#955db9""]","[""#5f6f81"",""#7f5d5d""]","66","false","[0.25,0.333,0.451,0.284]","0","0",""
"","","","","","two-step-trial","96","808601","0.0-71.0-0.0","","","","","","","","","[2,3]","0","2","515","0","[2560,1416]","1","[0,1]","1","1","755","1","1","[""#48a782"",""#955db9""]","[""#5f6f81"",""#7f5d5d""]","67","false","[0.255,0.331,0.425,0.278]","0","0",""
"","","","","","two-step-trial","97","813213","0.0-72.0-0.0","","","","","","","","","[0,1]","0","0","481","0","[2560,1416]","1","[0,1]","1","1","2127","0","0","[""#48a782"",""#955db9""]","[""#5f6f81"",""#7f5d5d""]","68","false","[0.281,0.326,0.434,0.261]","0","0",""
"","","","","","two-step-trial","98","817781","0.0-73.0-0.0","","","","","","","","","[2,3]","0","2","886.0000000001164","0","[2560,1416]","1","[0,1]","0","0","1676","0","1","[""#48a782"",""#955db9""]","[""#5f6f81"",""#7f5d5d""]","69","false","[0.277,0.319,0.434,0.286]","0","0",""
"","","","","","two-step-trial","99","822011","0.0-74.0-0.0","","","","","","","","","[0,1]","1","1","628","0","[2560,1416]","1","[0,1]","0","0","1598","1","0","[""#48a782"",""#955db9""]","[""#5f6f81"",""#7f5d5d""]","70","false","[0.318,0.351,0.474,0.272]","0","0",""
"","","","","","two-step-trial","100","824936","0.0-75.0-0.0","","","","","","","","","[2,3]","0","2","358","0","[2560,1416]","1","[0,1]","0","0","563","0","1","[""#48a782"",""#955db9""]","[""#5f6f81"",""#7f5d5d""]","71","false","[0.306,0.331,0.46,0.274]","0","0",""
"","","","","","two-step-trial","101","828525","0.0-76.0-0.0","","","","","","","","","[0,1]","1","1","516","0","[2560,1416]","1","[0,1]","0","0","1068","1","0","[""#48a782"",""#955db9""]","[""#5f6f81"",""#7f5d5d""]","72","false","[0.35,0.329,0.432,0.251]","0","0",""
"","","","","","two-step-trial","102","832654","0.0-77.0-0.0","","","","","","","","","[0,1]","0","0","572","1","[2560,1416]","1","[0,1]","0","0","1553","1","0","[""#48a782"",""#955db9""]","[""#5f6f81"",""#7f5d5d""]","73","false","[0.352,0.318,0.461,0.257]","0","0",""
"","","","","","two-step-trial","103","835803","0.0-78.0-0.0","","","","","","","","","[0,1]","0","0","649","1","[2560,1416]","1","[0,1]","0","0","496.0000000001164","1","0","[""#48a782"",""#955db9""]","[""#5f6f81"",""#7f5d5d""]","74","false","[0.374,0.315,0.514,0.262]","0","0",""
"","","","","","two-step-trial","104","838729","0.0-79.0-0.0","","","","","","","","","[0,1]","0","0","357.0000000001164","1","[2560,1416]","1","[0,1]","0","0","562.9999999998836","1","0","[""#48a782"",""#955db9""]","[""#5f6f81"",""#7f5d5d""]","75","false","[0.405,0.348,0.504,0.256]","0","0",""
"","","","","","two-step-instructions","105","912982","0.0-80.0","74252","","","[{""page_index"":0,""viewing_time"":66342},{""page_index"":1,""viewing_time"":1407},{""page_index"":0,""viewing_time"":1969},{""page_index"":1,""viewing_time"":4534}]","","","","","","","","","","","","","","","","","","","","","","","","",""
"","","","","","two-step-trial","106","918200","0.0-81.0-0.0","","","","","","","","","[2,3]","1","3","1651","0","[2560,1416]","1","[0,1]","1","1","1561.0000000001164","1","1","[""#48a782"",""#955db9""]","[""#5f6f81"",""#7f5d5d""]","76","false","[0.43,0.367,0.513,0.251]","0","0",""
"","","","","","two-step-trial","107","922576","0.0-82.0-0.0","","","","","","","","","[2,3]","0","2","774","0","[2560,1416]","1","[0,1]","1","1","1597","1","1","[""#48a782"",""#955db9""]","[""#5f6f81"",""#7f5d5d""]","77","false","[0.426,0.365,0.523,0.279]","0","0",""
"","","","","","two-step-trial","108","926413","0.0-83.0-0.0","","","","","","","","","[0,1]","0","0","1213","0","[2560,1416]","1","[0,1]","1","1","619","0","0","[""#48a782"",""#955db9""]","[""#5f6f81"",""#7f5d5d""]","78","false","[0.411,0.377,0.525,0.29]","0","0",""
"","","","","","two-step-trial","109","930372","0.0-84.0-0.0","","","","","","","","","[2,3]","0","2","1021","0","[2560,1416]","1","[0,1]","1","1","934.0000000001164","1","1","[""#48a782"",""#955db9""]","[""#5f6f81"",""#7f5d5d""]","79","false","[0.413,0.36,0.538,0.31]","0","0",""
"","","","","","two-step-trial","110","934963","0.0-85.0-0.0","","","","","","","","","[0,1]","1","1","1775","0","[2560,1416]","1","[0,1]","0","0","811","1","0","[""#48a782"",""#955db9""]","[""#5f6f81"",""#7f5d5d""]","80","false","[0.394,0.383,0.524,0.282]","0","0",""
"","","","","","two-step-trial","111","938180","0.0-86.0-0.0","","","","","","","","","[0,1]","0","0","436.0000000001164","1","[2560,1416]","1","[0,1]","0","0","777","1","0","[""#48a782"",""#955db9""]","[""#5f6f81"",""#7f5d5d""]","81","false","[0.361,0.391,0.524,0.269]","0","0",""
"","","","","","two-step-trial","112","942714","0.0-87.0-0.0","","","","","","","","","[2,3]","1","3","1381","0","[2560,1416]","1","[0,1]","0","0","1148.0000000001164","0","1","[""#48a782"",""#955db9""]","[""#5f6f81"",""#7f5d5d""]","82","false","[0.354,0.377,0.535,0.274]","0","0",""
"","","","","","two-step-trial","113","946854","0.0-88.0-0.0","","","","","","","","","[0,1]","0","0","1066","0","[2560,1416]","1","[0,1]","0","0","1070","1","0","[""#48a782"",""#955db9""]","[""#5f6f81"",""#7f5d5d""]","83","false","[0.353,0.363,0.504,0.307]","0","0",""
"","","","","","two-step-trial","114","950544","0.0-89.0-0.0","","","","","","","","","[2,3]","0","2","1190.9999999998836","1","[2560,1416]","1","[0,1]","0","0","496","0","1","[""#48a782"",""#955db9""]","[""#5f6f81"",""#7f5d5d""]","84","false","[0.361,0.317,0.485,0.273]","0","0",""
"","","","","","two-step-trial","115","958037","0.0-90.0-0.0","","","","","","","","","[0,1]","0","0","1403","0","[2560,1416]","1","[0,1]","0","0","4084","1","0","[""#48a782"",""#955db9""]","[""#5f6f81"",""#7f5d5d""]","85","false","[0.295,0.332,0.47,0.26]","0","0",""
"","","","","","two-step-trial","116","961660","0.0-91.0-0.0","","","","","","","","","[0,1]","0","0","740","1","[2560,1416]","1","[0,1]","0","0","878","1","0","[""#48a782"",""#955db9""]","[""#5f6f81"",""#7f5d5d""]","86","false","[0.287,0.344,0.46,0.32]","0","0",""
"","","","","","two-step-trial","117","965102","0.0-92.0-0.0","","","","","","","","","[2,3]","0","2","1032","1","[2560,1416]","1","[0,1]","0","0","405","0","1","[""#48a782"",""#955db9""]","[""#5f6f81"",""#7f5d5d""]","87","false","[0.278,0.373,0.46,0.351]","0","0",""
"","","","","","two-step-trial","118","968713","0.0-93.0-0.0","","","","","","","","","[0,1]","0","0","548","0","[2560,1416]","1","[0,1]","0","0","1057.9999999998836","1","0","[""#48a782"",""#955db9""]","[""#5f6f81"",""#7f5d5d""]","88","false","[0.277,0.355,0.459,0.358]","0","0",""
"","","","","","two-step-trial","119","972145","0.0-94.0-0.0","","","","","","","","","[0,1]","0","0","796.9999999998836","0","[2560,1416]","1","[0,1]","0","0","630","1","0","[""#48a782"",""#955db9""]","[""#5f6f81"",""#7f5d5d""]","89","false","[0.264,0.395,0.47,0.338]","0","0",""
"","","","","","two-step-trial","120","975272","0.0-95.0-0.0","","","","","","","","","[0,1]","1","1","706","0","[2560,1416]","1","[0,1]","0","0","416","1","0","[""#48a782"",""#955db9""]","[""#5f6f81"",""#7f5d5d""]","90","false","[0.258,0.389,0.495,0.348]","0","0",""
"","","","","","two-step-trial","121","978130","0.0-96.0-0.0","","","","","","","","","[0,1]","1","1","425","1","[2560,1416]","1","[0,1]","0","0","428","1","0","[""#48a782"",""#955db9""]","[""#5f6f81"",""#7f5d5d""]","91","false","[0.325,0.363,0.524,0.356]","0","0",""
"","","","","","two-step-trial","122","981944","0.0-97.0-0.0","","","","","","","","","[0,1]","1","1","1011.0000000001164","1","[2560,1416]","1","[0,1]","0","0","799.0000000001164","1","0","[""#48a782"",""#955db9""]","[""#5f6f81"",""#7f5d5d""]","92","false","[0.29,0.354,0.524,0.361]","0","0",""
"","","","","","two-step-trial","123","985161","0.0-98.0-0.0","","","","","","","","","[0,1]","1","1","673","0","[2560,1416]","1","[0,1]","0","0","540","1","0","[""#48a782"",""#955db9""]","[""#5f6f81"",""#7f5d5d""]","93","false","[0.318,0.353,0.542,0.336]","0","0",""
"","","","","","two-step-trial","124","989166","0.0-99.0-0.0","","","","","","","","","[2,3]","1","3","1314","1","[2560,1416]","1","[0,1]","0","0","686","0","1","[""#48a782"",""#955db9""]","[""#5f6f81"",""#7f5d5d""]","94","false","[0.329,0.367,0.542,0.302]","0","0",""
"","","","","","two-step-trial","125","992373","0.0-100.0-0.0","","","","","","","","","[2,3]","1","3","572.9999999998836","1","[2560,1416]","1","[0,1]","0","0","631","0","1","[""#48a782"",""#955db9""]","[""#5f6f81"",""#7f5d5d""]","95","false","[0.348,0.33,0.586,0.265]","0","0",""
"","","","","","two-step-trial","126","996130","0.0-101.0-0.0","","","","","","","","","[0,1]","0","0","1100","1","[2560,1416]","1","[0,1]","0","0","653","1","0","[""#48a782"",""#955db9""]","[""#5f6f81"",""#7f5d5d""]","96","false","[0.348,0.348,0.591,0.304]","0","0",""
"","","","","","two-step-trial","127","999426","0.0-102.0-0.0","","","","","","","","","[0,1]","0","0","851.9999999998836","1","[2560,1416]","1","[0,1]","0","0","439","1","0","[""#48a782"",""#955db9""]","[""#5f6f81"",""#7f5d5d""]","97","false","[0.328,0.258,0.639,0.303]","0","0",""
"","","","","","two-step-trial","128","1002644","0.0-103.0-0.0","","","","","","","","","[2,3]","1","3","819","1","[2560,1416]","1","[0,1]","0","0","395","0","1","[""#48a782"",""#955db9""]","[""#5f6f81"",""#7f5d5d""]","98","false","[0.381,0.256,0.661,0.29]","0","0",""
"","","","","","two-step-trial","129","1005457","0.0-104.0-0.0","","","","","","","","","[0,1]","0","0","403","1","[2560,1416]","1","[0,1]","0","0","404.9999999998836","1","0","[""#48a782"",""#955db9""]","[""#5f6f81"",""#7f5d5d""]","99","false","[0.423,0.312,0.659,0.319]","0","0",""
"","","","","","two-step-trial","130","1008776","0.0-105.0-0.0","","","","","","","","","[0,1]","0","0","1021","0","[2560,1416]","1","[0,1]","0","0","293","1","0","[""#48a782"",""#955db9""]","[""#5f6f81"",""#7f5d5d""]","100","false","[0.419,0.326,0.615,0.332]","0","0",""
"","","","","","two-step-trial","131","1011644","0.0-106.0-0.0","","","","","","","","","[2,3]","1","3","436","0","[2560,1416]","1","[0,1]","0","0","427.0000000001164","0","1","[""#48a782"",""#955db9""]","[""#5f6f81"",""#7f5d5d""]","101","false","[0.406,0.305,0.562,0.356]","0","0",""
"","","","","","two-step-trial","132","1015064","0.0-107.0-0.0","","","","","","","","","[0,1]","0","0","527","0","[2560,1416]","1","[0,1]","0","0","887.9999999998836","1","0","[""#48a782"",""#955db9""]","[""#5f6f81"",""#7f5d5d""]","102","false","[0.412,0.303,0.532,0.328]","0","0",""
"","","","","","two-step-trial","133","1019081","0.0-108.0-0.0","","","","","","","","","[2,3]","0","2","1224","0","[2560,1416]","1","[0,1]","0","0","788.0000000001164","0","1","[""#48a782"",""#955db9""]","[""#5f6f81"",""#7f5d5d""]","103","false","[0.399,0.326,0.531,0.314]","0","0",""
"","","","","","two-step-trial","134","1022670","0.0-109.0-0.0","","","","","","","","","[0,1]","0","0","1145","0","[2560,1416]","1","[0,1]","0","0","439.0000000001164","1","0","[""#48a782"",""#955db9""]","[""#5f6f81"",""#7f5d5d""]","104","false","[0.398,0.313,0.576,0.303]","0","0",""
"","","","","","two-step-trial","135","1025639","0.0-110.0-0.0","","","","","","","","","[2,3]","0","2","42.000000000116415","1","[2560,1416]","1","[0,1]","1","1","922.0000000001164","1","1","[""#48a782"",""#955db9""]","[""#5f6f81"",""#7f5d5d""]","105","false","[0.41,0.34,0.593,0.316]","0","0",""
"","","","","","two-step-trial","136","1031096","0.0-111.0-0.0","","","","","","","","","[2,3]","0","2","987","0","[2560,1416]","1","[0,1]","0","0","2464.9999999998836","0","1","[""#48a782"",""#955db9""]","[""#5f6f81"",""#7f5d5d""]","106","false","[0.402,0.333,0.57,0.322]","0","0",""
"","","","","","two-step-trial","137","1034279","0.0-112.0-0.0","","","","","","","","","[0,1]","0","0","751","0","[2560,1416]","1","[0,1]","0","0","428.0000000001164","1","0","[""#48a782"",""#955db9""]","[""#5f6f81"",""#7f5d5d""]","107","false","[0.408,0.274,0.566,0.316]","0","0",""
"","","","","","two-step-trial","138","1037767","0.0-113.0-0.0","","","","","","","","","[0,1]","0","0","1066","0","[2560,1416]","1","[0,1]","0","0","416.0000000001164","1","0","[""#48a782"",""#955db9""]","[""#5f6f81"",""#7f5d5d""]","108","false","[0.426,0.262,0.552,0.283]","0","0",""
"","","","","","two-step-trial","139","1041918","0.0-114.0-0.0","","","","","","","","","[2,3]","0","2","1831.0000000001164","1","[2560,1416]","1","[0,1]","0","0","315.0000000001164","0","1","[""#48a782"",""#955db9""]","[""#5f6f81"",""#7f5d5d""]","109","false","[0.4,0.265,0.503,0.284]","0","0",""
"","","","","","two-step-trial","140","1045069","0.0-115.0-0.0","","","","","","","","","[0,1]","1","1","772.9999999998836","0","[2560,1416]","1","[0,1]","0","0","370.99999999976717","1","0","[""#48a782"",""#955db9""]","[""#5f6f81"",""#7f5d5d""]","110","false","[0.389,0.286,0.517,0.318]","0","0",""
"","","","","","two-step-trial","141","1048454","0.0-116.0-0.0","","","","","","","","","[2,3]","0","2","954","1","[2560,1416]","1","[0,1]","0","0","428.0000000001164","0","1","[""#48a782"",""#955db9""]","[""#5f6f81"",""#7f5d5d""]","111","false","[0.389,0.289,0.505,0.348]","0","0",""
"","","","","","two-step-trial","142","1051695","0.0-117.0-0.0","","","","","","","","","[0,1]","1","1","808","0","[2560,1416]","1","[0,1]","0","0","429","1","0","[""#48a782"",""#955db9""]","[""#5f6f81"",""#7f5d5d""]","112","false","[0.387,0.265,0.506,0.329]","0","0",""
"","","","","","two-step-trial","143","1054676","0.0-118.0-0.0","","","","","","","","","[0,1]","0","0","549","0","[2560,1416]","1","[0,1]","0","0","428","1","0","[""#48a782"",""#955db9""]","[""#5f6f81"",""#7f5d5d""]","113","false","[0.384,0.256,0.524,0.353]","0","0",""
"","","","","","two-step-trial","144","1057735","0.0-119.0-0.0","","","","","","","","","[0,1]","1","1","594","0","[2560,1416]","1","[0,1]","0","0","462","1","0","[""#48a782"",""#955db9""]","[""#5f6f81"",""#7f5d5d""]","114","false","[0.367,0.273,0.512,0.348]","0","0",""
"","","","","","two-step-trial","145","1060739","0.0-120.0-0.0","","","","","","","","","[0,1]","1","1","593","0","[2560,1416]","1","[0,1]","0","0","407","1","0","[""#48a782"",""#955db9""]","[""#5f6f81"",""#7f5d5d""]","115","false","[0.323,0.276,0.502,0.358]","0","0",""
"","","","","","two-step-trial","146","1063665","0.0-121.0-0.0","","","","","","","","","[0,1]","0","0","437","1","[2560,1416]","1","[0,1]","0","0","485.00000000023283","1","0","[""#48a782"",""#955db9""]","[""#5f6f81"",""#7f5d5d""]","116","false","[0.327,0.301,0.482,0.366]","0","0",""
"","","","","","two-step-trial","147","1066623","0.0-122.0-0.0","","","","","","","","","[0,1]","0","0","550","0","[2560,1416]","1","[0,1]","0","0","406","1","0","[""#48a782"",""#955db9""]","[""#5f6f81"",""#7f5d5d""]","117","false","[0.356,0.324,0.447,0.405]","0","0",""
"","","","","","two-step-trial","148","1069672","0.0-123.0-0.0","","","","","","","","","[0,1]","0","0","875","1","[2560,1416]","1","[0,1]","0","0","170","1","0","[""#48a782"",""#955db9""]","[""#5f6f81"",""#7f5d5d""]","118","false","[0.346,0.346,0.451,0.456]","0","0",""
"","","","","","two-step-trial","149","1072643","0.0-124.0-0.0","","","","","","","","","[0,1]","0","0","502.99999999976717","1","[2560,1416]","1","[0,1]","0","0","462","1","0","[""#48a782"",""#955db9""]","[""#5f6f81"",""#7f5d5d""]","119","false","[0.307,0.341,0.511,0.496]","0","0",""
"","","","","","two-step-trial","150","1075489","0.0-125.0-0.0","","","","","","","","","[0,1]","0","0","436","0","[2560,1416]","1","[0,1]","0","0","404","1","0","[""#48a782"",""#955db9""]","[""#5f6f81"",""#7f5d5d""]","120","false","[0.301,0.307,0.523,0.5]","0","0",""
"","","","","","two-step-trial","151","1078357","0.0-126.0-0.0","","","","","","","","","[0,1]","0","0","437","0","[2560,1416]","1","[0,1]","0","0","428.00000000023283","1","0","[""#48a782"",""#955db9""]","[""#5f6f81"",""#7f5d5d""]","121","false","[0.288,0.297,0.519,0.491]","0","0",""
"","","","","","two-step-trial","152","1082430","0.0-127.0-0.0","","","","","","","","","[2,3]","0","2","1697","1","[2560,1416]","1","[0,1]","0","0","372","0","1","[""#48a782"",""#955db9""]","[""#5f6f81"",""#7f5d5d""]","122","false","[0.275,0.313,0.525,0.507]","0","0",""
"","","","","","two-step-trial","153","1085793","0.0-128.0-0.0","","","","","","","","","[0,1]","0","0","885.9999999997672","1","[2560,1416]","1","[0,1]","0","0","473","1","0","[""#48a782"",""#955db9""]","[""#5f6f81"",""#7f5d5d""]","123","false","[0.288,0.279,0.473,0.464]","0","0",""
"","","","","","two-step-trial","154","1089090","0.0-129.0-0.0","","","","","","","","","[2,3]","0","2","751","0","[2560,1416]","1","[0,1]","0","0","541","0","1","[""#48a782"",""#955db9""]","[""#5f6f81"",""#7f5d5d""]","124","false","[0.287,0.296,0.496,0.443]","0","0",""
"","","","","","two-step-trial","155","1092577","0.0-130.0-0.0","","","","","","","","","[2,3]","0","2","1021","1","[2560,1416]","1","[0,1]","0","0","461.99999999976717","0","1","[""#48a782"",""#955db9""]","[""#5f6f81"",""#7f5d5d""]","125","false","[0.26,0.276,0.477,0.451]","0","0",""
"","","","","","two-step-trial","156","1095851","0.0-131.0-0.0","","","","","","","","","[0,1]","0","0","807","0","[2560,1416]","1","[0,1]","0","0","463","1","0","[""#48a782"",""#955db9""]","[""#5f6f81"",""#7f5d5d""]","126","false","[0.283,0.285,0.494,0.477]","0","0",""
"","","","","","two-step-trial","157","1099396","0.0-132.0-0.0","","","","","","","","","[0,1]","0","0","774","1","[2560,1416]","1","[0,1]","1","1","766","0","0","[""#48a782"",""#955db9""]","[""#5f6f81"",""#7f5d5d""]","127","false","[0.285,0.251,0.493,0.518]","0","0",""
"","","","","","two-step-trial","158","1102433","0.0-133.0-0.0","","","","","","","","","[0,1]","0","0","538","1","[2560,1416]","1","[0,1]","1","1","495","0","0","[""#48a782"",""#955db9""]","[""#5f6f81"",""#7f5d5d""]","128","false","[0.285,0.278,0.495,0.479]","0","0",""
"","","","","","two-step-trial","159","1105965","0.0-134.0-0.0","","","","","","","","","[2,3]","0","2","357","0","[2560,1416]","1","[0,1]","1","1","1171","1","1","[""#48a782"",""#955db9""]","[""#5f6f81"",""#7f5d5d""]","129","false","[0.304,0.316,0.486,0.459]","0","0",""
"","","","","","two-step-trial","160","1109644","0.0-135.0-0.0","","","","","","","","","[0,1]","0","0","908.9999999997672","0","[2560,1416]","1","[0,1]","1","1","765.9999999997672","0","0","[""#48a782"",""#955db9""]","[""#5f6f81"",""#7f5d5d""]","130","false","[0.279,0.291,0.485,0.452]","0","0",""
"","","","","","two-step-trial","161","1113492","0.0-136.0-0.0","","","","","","","","","[2,3]","0","2","1010","1","[2560,1416]","1","[0,1]","1","1","833","1","1","[""#48a782"",""#955db9""]","[""#5f6f81"",""#7f5d5d""]","131","false","[0.257,0.293,0.476,0.442]","0","0",""
"","","","","","two-step-trial","162","1116867","0.0-137.0-0.0","","","","","","","","","[2,3]","0","2","773","0","[2560,1416]","1","[0,1]","0","0","598.0000000002328","0","1","[""#48a782"",""#955db9""]","[""#5f6f81"",""#7f5d5d""]","132","false","[0.267,0.335,0.408,0.456]","0","0",""
"","","","","","two-step-trial","163","1120489","0.0-138.0-0.0","","","","","","","","","[0,1]","0","0","1212","0","[2560,1416]","1","[0,1]","0","0","406","1","0","[""#48a782"",""#955db9""]","[""#5f6f81"",""#7f5d5d""]","133","false","[0.254,0.359,0.444,0.42]","0","0",""
"","","","","","two-step-trial","164","1123921","0.0-139.0-0.0","","","","","","","","","[0,1]","0","0","988","1","[2560,1416]","1","[0,1]","0","0","440","1","0","[""#48a782"",""#955db9""]","[""#5f6f81"",""#7f5d5d""]","134","false","[0.265,0.371,0.443,0.419]","0","0",""
"","","","","","two-step-trial","165","1126756","0.0-140.0-0.0","","","","","","","","","[0,1]","0","0","347","0","[2560,1416]","1","[0,1]","0","0","484","1","0","[""#48a782"",""#955db9""]","[""#5f6f81"",""#7f5d5d""]","135","false","[0.272,0.34,0.465,0.386]","0","0",""
"","","","","","two-step-trial","166","1129872","0.0-141.0-0.0","","","","","","","","","[0,1]","0","0","616","1","[2560,1416]","1","[0,1]","1","1","495","0","0","[""#48a782"",""#955db9""]","[""#5f6f81"",""#7f5d5d""]","136","false","[0.291,0.34,0.503,0.372]","0","0",""
"","","","","","two-step-trial","167","1133450","0.0-142.0-0.0","","","","","","","","","[2,3]","0","2","1043","1","[2560,1416]","1","[0,1]","0","0","529","0","1","[""#48a782"",""#955db9""]","[""#5f6f81"",""#7f5d5d""]","137","false","[0.25,0.307,0.498,0.357]","0","0",""
"","","","","","two-step-trial","168","1136611","0.0-143.0-0.0","","","","","","","","","[2,3]","0","2","706","0","[2560,1416]","1","[0,1]","0","0","450","0","1","[""#48a782"",""#955db9""]","[""#5f6f81"",""#7f5d5d""]","138","false","[0.265,0.293,0.462,0.319]","0","0",""
"","","","","","two-step-trial","169","1139615","0.0-144.0-0.0","","","","","","","","","[0,1]","0","0","549","0","[2560,1416]","1","[0,1]","0","0","451","1","0","[""#48a782"",""#955db9""]","[""#5f6f81"",""#7f5d5d""]","139","false","[0.268,0.317,0.494,0.325]","0","0",""
"","","","","","two-step-trial","170","1142562","0.0-145.0-0.0","","","","","","","","","[2,3]","0","2","627.0000000002328","0","[2560,1416]","1","[0,1]","1","1","315","1","1","[""#48a782"",""#955db9""]","[""#5f6f81"",""#7f5d5d""]","140","false","[0.276,0.319,0.471,0.343]","0","0",""
"","","","","","two-step-trial","171","1145757","0.0-146.0-0.0","","","","","","","","","[2,3]","0","2","492","0","[2560,1416]","1","[0,1]","1","1","698","1","1","[""#48a782"",""#955db9""]","[""#5f6f81"",""#7f5d5d""]","141","false","[0.261,0.318,0.465,0.338]","0","0",""
"","","","","","two-step-trial","172","1149043","0.0-147.0-0.0","","","","","","","","","[0,1]","0","0","953","0","[2560,1416]","1","[0,1]","0","0","327","1","0","[""#48a782"",""#955db9""]","[""#5f6f81"",""#7f5d5d""]","142","false","[0.269,0.269,0.465,0.359]","0","0",""
"","","","","","two-step-trial","173","1151979","0.0-148.0-0.0","","","","","","","","","[0,1]","1","1","471","0","[2560,1416]","1","[0,1]","0","0","461","1","0","[""#48a782"",""#955db9""]","[""#5f6f81"",""#7f5d5d""]","143","false","[0.288,0.255,0.464,0.364]","0","0",""
"","","","","","two-step-trial","174","1155106","0.0-149.0-0.0","","","","","","","","","[0,1]","0","0","391","0","[2560,1416]","1","[0,1]","0","0","732","1","0","[""#48a782"",""#955db9""]","[""#5f6f81"",""#7f5d5d""]","144","false","[0.311,0.284,0.439,0.335]","0","0",""
"","","","","","two-step-trial","175","1158820","0.0-150.0-0.0","","","","","","","","","[0,1]","0","0","770","0","[2560,1416]","1","[0,1]","1","1","996","0","0","[""#48a782"",""#955db9""]","[""#5f6f81"",""#7f5d5d""]","145","false","[0.291,0.284,0.413,0.345]","0","0",""
"","","","","","two-step-trial","176","1162308","0.0-151.0-0.0","","","","","","","","","[2,3]","0","2","852","0","[2560,1416]","1","[0,1]","1","1","631","1","1","[""#48a782"",""#955db9""]","[""#5f6f81"",""#7f5d5d""]","146","false","[0.289,0.292,0.421,0.344]","0","0",""
"","","","","","two-step-trial","177","1165492","0.0-152.0-0.0","","","","","","","","","[2,3]","1","3","526","1","[2560,1416]","1","[0,1]","1","1","653","1","1","[""#48a782"",""#955db9""]","[""#5f6f81"",""#7f5d5d""]","147","false","[0.299,0.296,0.457,0.356]","0","0",""
"","","","","","two-step-trial","178","1169643","0.0-153.0-0.0","","","","","","","","","[2,3]","1","3","583","1","[2560,1416]","1","[0,1]","1","1","1564","1","1","[""#48a782"",""#955db9""]","[""#5f6f81"",""#7f5d5d""]","148","false","[0.264,0.313,0.451,0.366]","0","0",""
"","","","","","two-step-trial","179","1172624","0.0-154.0-0.0","","","","","","","","","[2,3]","1","3","471","1","[2560,1416]","1","[0,1]","1","1","507.00000000023283","1","1","[""#48a782"",""#955db9""]","[""#5f6f81"",""#7f5d5d""]","149","false","[0.272,0.36,0.455,0.385]","0","0",""
"","","","","","two-step-trial","180","1176460","0.0-155.0-0.0","","","","","","","","","[0,1]","1","1","1144","1","[2560,1416]","1","[0,1]","1","1","687","0","0","[""#48a782"",""#955db9""]","[""#5f6f81"",""#7f5d5d""]","150","false","[0.282,0.392,0.477,0.39]","0","0",""
"","","","","","two-step-instructions","181","1226835","0.0-156.0","50374","","","[{""page_index"":0,""viewing_time"":50374}]","","","","","","","","","","","","","","","","","","","","","","","","",""
"","","","","","two-step-comprehension","182","1245891","0.0-157.0","19053.000000000233","","","","[""green"",""purple""]","0","","","","","","","","","","","","","","","","","","","","","","","[{""event"":""fullscreenenter"",""trial"":1,""time"":7926}]"
