"success","timeout","failed_images","failed_audio","failed_video","trial_type","trial_index","time_elapsed","internal_node_id","rt","stimulus","response","view_history","responses","num_errors","quiz","phase","state_2_ids","state_2_key","state_2_choice","state_2_rt","outcome","screen_resolution","minimum_resolution","state_1_ids","state_1_key","state_1_choice","state_1_rt","transition","state","rocket_colors","planet_colors","trial","missing","drifts","drift_ix","browser_interactions","interactions"
"true","false","[]","[]","[]","preload","0","208","0.0-0.0","","","","","","","","","","","","","","","","","","","","","","","","","","","","",""
"true","","","","","fullscreen","1","4096","0.0-1.0","","","","","","","","","","","","","","","","","","","","","","","","","","","","",""
"","","","","","html-keyboard-response","2","10967","0.0-2.0","6867.5999999940395","<p>You are starting a demo of the <b>two-step task.</b></p><p>To see the instructions, press the ""1"" key. To skip them, press the ""2"" key.</p>","1","","","","","","","","","","","","","","","","","","","","","","","","","",""
"","","","","","two-step-instructions","3","46355","0.0-3.0-0.0-1.0","35377.89999999106","","","[{""page_index"":0,""viewing_time"":4905.5},{""page_index"":1,""viewing_time"":2633.2999999970198},{""page_index"":2,""viewing_time"":3094.3999999910593},{""page_index"":3,""viewing_time"":4172.600000008941},{""page_index"":4,""viewing_time"":3292.7000000029802},{""page_index"":5,""viewing_time"":1065.0999999940395},{""page_index"":6,""viewing_time"":452.09999999403954},{""page_index"":7,""viewing_time"":981.1000000089407},{""page_index"":8,""viewing_time"":4719.5999999940395},{""page_index"":9,""viewing_time"":6241.20000000298},{""page_index"":10,""viewing_time"":3818.7999999970198}]","","","","","","","","","","","","","","","","","","","","","","","","",""
"","","","","","two-step-comprehension","4","60730","0.0-3.0-0.0-2.0","14360.70000000298","","","","[""left/right arrow keys"",""True"",""True""]","0","1","","","","","","","","","","","","","","","","","","","","","",""
"","","","","","two-step-instructions","5","65346","0.0-3.0-1.0-0.0-0.0","4596.79999999702","","","[{""page_index"":0,""viewing_time"":4596.399999991059}]","","","","instructions_1b","","","","","","","","","","","","","","","","","","","","",""
"","","","","","alien-practice","6","68398","0.0-3.0-1.0-1.0-0.0","","","","","","","","","[0,1]","1","1","812.7000000029802","1","[1620,1080]","1","","","","","","","","","","","","","",""
"","","","","","alien-practice","7","71587","0.0-3.0-1.0-2.0-0.0","","","","","","","","","[0,1]","1","1","302.20000000298023","0","[1620,1080]","1","","","","","","","","","","","","","",""
"","","","","","alien-practice","8","75203","0.0-3.0-1.0-3.0-0.0","","","","","","","","","[0,1]","1","1","413.8999999910593","1","[1620,1080]","1","","","","","","","","","","","","","",""
"","","","","","alien-practice","9","77828","0.0-3.0-1.0-4.0-0.0","","","","","","","","","[0,1]","1","1","391.6000000089407","1","[1620,1080]","1","","","","","","","","","","","","","",""
"","","","","","alien-practice","10","80384","0.0-3.0-1.0-5.0-0.0","","","","","","","","","[0,1]","1","1","325.09999999403954","1","[1620,1080]","1","","","","","","","","","","","","","",""
"","","","","","two-step-instructions","11","96261","0.0-3.0-2.0-1.0","15871.09999999404","","","[{""page_index"":0,""viewing_time"":4593},{""page_index"":1,""viewing_time"":1687.7000000029802},{""page_index"":2,""viewing_time"":4368.199999988079},{""page_index"":3,""viewing_time"":1979.300000011921},{""page_index"":4,""viewing_time"":1807.2999999970198},{""page_index"":5,""viewing_time"":1434.5}]","","","","","","","","","","","","","","","","","","","","","","","","",""
"","","","","","two-step-comprehension","12","107455","0.0-3.0-2.0-2.0","11184.699999988079","","","","[""left/right arrow keys"",""False"",""True""]","0","2","","","","","","","","","","","","","","","","","","","","","",""
"","","","","","two-step-instructions","13","119799","0.0-3.0-3.0-0.0","12330.300000011921","","","[{""page_index"":0,""viewing_time"":1530.1000000089407},{""page_index"":1,""viewing_time"":4622.5999999940395},{""page_index"":2,""viewing_time"":6176.100000008941}]","","","","","","","","","","","","","","","","","","","","","","","","",""
"","","","","","two-step-trial","14","127594","0.0-3.0-3.0-1.0-0.0","","","","","","","","","[2,3]","1","3","801","1","[1620,1080]","1","[0,1]","1","1","4866.100000008941","1","1","[""#a75248"",""#486ea7""]","[""#5b7c65"",""#706081""]","0","false","","","",""
"","","","","","two-step-trial","15","130542","0.0-3.0-3.0-1.0-0.1","","","","","","","","","[2,3]","1","3","385.29999999701977","1","[1620,1080]","1","[0,1]","1","1","535.3000000119209","1","1","[""#a75248"",""#486ea7""]","[""#5b7c65"",""#706081""]","0","false","","","",""
"","","","","","two-step-trial","16","135115","0.0-3.0-3.0-1.0-0.2","","","","","","","","","[0,1]","0","0","1324.0999999940395","1","[1620,1080]","1","[0,1]","1","1","394.79999999701977","0","0","[""#a75248"",""#486ea7""]","[""#5b7c65"",""#706081""]","0","false","","","",""
"","","","","","two-step-trial","17","138181","0.0-3.0-3.0-1.0-0.3","","","","","","","","","[2,3]","1","3","519.2000000029802","1","[1620,1080]","1","[0,1]","1","1","514.4000000059605","1","1","[""#a75248"",""#486ea7""]","[""#5b7c65"",""#706081""]","0","false","","","",""
"","","","","","two-step-trial","18","141438","0.0-3.0-3.0-1.0-0.4","","","","","","","","","[2,3]","1","3","519.4000000059605","1","[1620,1080]","1","[0,1]","1","1","712.5","1","1","[""#a75248"",""#486ea7""]","[""#5b7c65"",""#706081""]","0","false","","","",""
"","","","","","two-step-trial","19","144591","0.0-3.0-3.0-1.0-0.5","","","","","","","","","[2,3]","1","3","548.4000000059605","1","[1620,1080]","1","[0,1]","1","1","533.9000000059605","1","1","[""#a75248"",""#486ea7""]","[""#5b7c65"",""#706081""]","0","false","","","",""
"","","","","","two-step-trial","20","147599","0.0-3.0-3.0-1.0-0.6","","","","","","","","","[2,3]","1","3","466.70000000298023","1","[1620,1080]","1","[0,1]","1","1","506.69999998807907","1","1","[""#a75248"",""#486ea7""]","[""#5b7c65"",""#706081""]","0","false","","","",""
"","","","","","two-step-trial","21","151588","0.0-3.0-3.0-1.0-0.7","","","","","","","","","[2,3]","1","3","459.20000000298023","1","[1620,1080]","1","[0,1]","1","1","561.2000000029802","1","1","[""#a75248"",""#486ea7""]","[""#5b7c65"",""#706081""]","0","false","","","",""
"","","","","","two-step-trial","22","154550","0.0-3.0-3.0-1.0-0.8","","","","","","","","","[2,3]","1","3","462.1000000089407","1","[1620,1080]","1","[0,1]","1","1","480.8999999910593","1","1","[""#a75248"",""#486ea7""]","[""#5b7c65"",""#706081""]","0","false","","","",""
"","","","","","two-step-trial","23","157589","0.0-3.0-3.0-1.0-0.9","","","","","","","","","[2,3]","1","3","465.59999999403954","1","[1620,1080]","1","[0,1]","1","1","457.80000001192093","1","1","[""#a75248"",""#486ea7""]","[""#5b7c65"",""#706081""]","0","false","","","",""
"","","","","","two-step-instructions","24","196683","0.0-3.0-4.0-1.0","39085.79999999702","","","[{""page_index"":0,""viewing_time"":5133.4000000059605},{""page_index"":1,""viewing_time"":2152},{""page_index"":2,""viewing_time"":1446.0999999940395},{""page_index"":3,""viewing_time"":1448.7000000029802},{""page_index"":4,""viewing_time"":11030.20000000298},{""page_index"":5,""viewing_time"":12147.39999999106},{""page_index"":6,""viewing_time"":5727.4000000059605}]","","","","","","","","","","","","","","","","","","","","","","","","",""
"","","","","","two-step-comprehension","25","213241","0.0-3.0-4.0-2.0","16549.59999999404","","","","[""True"",""False"",""True""]","0","3","","","","","","","","","","","","","","","","","","","","","",""
"","","","","","two-step-instructions","26","223475","0.0-4.0","10225.39999999106","","","[{""page_index"":0,""viewing_time"":1651.7999999970198},{""page_index"":1,""viewing_time"":4935.29999999702},{""page_index"":2,""viewing_time"":3637.6000000089407}]","","","","","","","","","","","","","","","","","","","","","","","","",""
"","","","","","two-step-trial","27","227809","0.0-5.0-0.0","","","","","","","","","[0,1]","0","0","1018.7000000029802","0","[1620,1080]","1","[0,1]","0","0","863.7000000029802","1","0","[""#48a782"",""#955db9""]","[""#7f5d5d"",""#5f6f81""]","1","false","[0.412,0.317,0.453,0.743]","2","0",""
"","","","","","two-step-trial","28","230525","0.0-6.0-0.0","","","","","","","","","[0,1]","1","1","363.80000001192093","1","[1620,1080]","1","[0,1]","0","0","314.70000000298023","1","0","[""#48a782"",""#955db9""]","[""#7f5d5d"",""#5f6f81""]","2","false","[0.402,0.305,0.461,0.702]","2","0",""
"","","","","","two-step-trial","29","234094","0.0-7.0-0.0","","","","","","","","","[0,1]","1","1","307.20000000298023","0","[1620,1080]","1","[0,1]","0","0","368.3999999910593","1","0","[""#48a782"",""#955db9""]","[""#7f5d5d"",""#5f6f81""]","3","false","[0.373,0.327,0.445,0.732]","2","0",""
"","","","","","two-step-trial","30","236949","0.0-8.0-0.0","","","","","","","","","[0,1]","0","0","510.20000000298023","0","[1620,1080]","1","[0,1]","1","1","318","0","0","[""#48a782"",""#955db9""]","[""#7f5d5d"",""#5f6f81""]","4","false","[0.381,0.303,0.418,0.736]","2","0",""
"","","","","","two-step-trial","31","240432","0.0-9.0-0.0","","","","","","","","","[0,1]","1","1","630.2000000029802","1","[1620,1080]","1","[0,1]","1","1","317.5","0","0","[""#48a782"",""#955db9""]","[""#7f5d5d"",""#5f6f81""]","5","false","[0.366,0.363,0.401,0.709]","2","0",""
"","","","","","two-step-trial","32","243406","0.0-10.0-0.0","","","","","","","","","[2,3]","1","3","631.5","0","[1620,1080]","1","[0,1]","1","1","320.70000000298023","1","1","[""#48a782"",""#955db9""]","[""#7f5d5d"",""#5f6f81""]","6","false","[0.393,0.368,0.383,0.711]","2","0",""
"","","","","","two-step-trial","33","247347","0.0-11.0-0.0","","","","","","","","","[2,3]","0","2","547.9000000059605","0","[1620,1080]","1","[0,1]","1","1","486.5","1","1","[""#48a782"",""#955db9""]","[""#7f5d5d"",""#5f6f81""]","7","false","[0.4,0.405,0.425,0.678]","2","0",""
"","","","","","two-step-trial","34","250154","0.0-12.0-0.0","","","","","","","","","[0,1]","1","1","440.8999999910593","1","[1620,1080]","1","[0,1]","0","0","353","1","0","[""#48a782"",""#955db9""]","[""#7f5d5d"",""#5f6f81""]","8","false","[0.383,0.388,0.415,0.699]","2","0",""
"","","","","","two-step-trial","35","253124","0.0-13.0-0.0","","","","","","","","","[0,1]","1","1","330.1000000089407","0","[1620,1080]","1","[0,1]","0","0","319.69999998807907","1","0","[""#48a782"",""#955db9""]","[""#7f5d5d"",""#5f6f81""]","9","false","[0.347,0.439,0.405,0.713]","2","0",""
"","","","","","two-step-trial","36","255761","0.0-14.0-0.0","","","","","","","","","[2,3]","1","3","313.5","1","[1620,1080]","1","[0,1]","0","0","296.20000000298023","0","1","[""#48a782"",""#955db9""]","[""#7f5d5d"",""#5f6f81""]","10","false","[0.367,0.459,0.46,0.731]","2","0",""
"","","","","","two-step-trial","37","259548","0.0-15.0-0.0","","","","","","","","","[0,1]","1","1","745.8999999910593","0","[1620,1080]","1","[0,1]","0","0","707.2999999970198","1","0","[""#48a782"",""#955db9""]","[""#7f5d5d"",""#5f6f81""]","11","false","[0.397,0.451,0.461,0.701]","2","0",""
"","","","","","two-step-trial","38","262522","0.0-16.0-0.0","","","","","","","","","[0,1]","1","1","566.7000000029802","1","[1620,1080]","1","[0,1]","0","0","374.8999999910593","1","0","[""#48a782"",""#955db9""]","[""#7f5d5d"",""#5f6f81""]","12","false","[0.357,0.426,0.459,0.707]","2","0",""
"","","","","","two-step-trial","39","266279","0.0-17.0-0.0","","","","","","","","","[0,1]","1","1","482.80000001192093","1","[1620,1080]","1","[0,1]","0","0","352.20000000298023","1","0","[""#48a782"",""#955db9""]","[""#7f5d5d"",""#5f6f81""]","13","false","[0.337,0.398,0.428,0.721]","2","0",""
"","","","","","two-step-trial","40","269114","0.0-18.0-0.0","","","","","","","","","[0,1]","1","1","450.29999999701977","0","[1620,1080]","1","[0,1]","0","0","364.09999999403954","1","0","[""#48a782"",""#955db9""]","[""#7f5d5d"",""#5f6f81""]","14","false","[0.283,0.408,0.384,0.719]","2","0",""
"","","","","","two-step-trial","41","272495","0.0-19.0-0.0","","","","","","","","","[2,3]","1","3","693.3999999910593","1","[1620,1080]","1","[0,1]","0","0","366.79999999701977","0","1","[""#48a782"",""#955db9""]","[""#7f5d5d"",""#5f6f81""]","15","false","[0.295,0.37,0.375,0.738]","2","0",""
"","","","","","two-step-trial","42","275286","0.0-20.0-0.0","","","","","","","","","[0,1]","1","1","430.6000000089407","0","[1620,1080]","1","[0,1]","0","0","324.3999999910593","1","0","[""#48a782"",""#955db9""]","[""#7f5d5d"",""#5f6f81""]","16","false","[0.305,0.343,0.325,0.713]","2","0",""
"","","","","","two-step-trial","43","278173","0.0-21.0-0.0","","","","","","","","","[2,3]","1","3","373.79999999701977","1","[1620,1080]","1","[0,1]","1","1","348","1","1","[""#48a782"",""#955db9""]","[""#7f5d5d"",""#5f6f81""]","17","false","[0.305,0.313,0.334,0.705]","2","0",""
"","","","","","two-step-trial","44","281286","0.0-22.0-0.0","","","","","","","","","[2,3]","1","3","640.6000000089407","1","[1620,1080]","1","[0,1]","1","1","435.79999999701977","1","1","[""#48a782"",""#955db9""]","[""#7f5d5d"",""#5f6f81""]","18","false","[0.316,0.314,0.353,0.728]","2","0",""
"","","","","","two-step-trial","45","284734","0.0-23.0-0.0","","","","","","","","","[0,1]","1","1","937.2999999970198","0","[1620,1080]","1","[0,1]","1","1","256.6000000089407","0","0","[""#48a782"",""#955db9""]","[""#7f5d5d"",""#5f6f81""]","19","false","[0.317,0.335,0.368,0.745]","2","0",""
"","","","","","two-step-trial","46","287451","0.0-24.0-0.0","","","","","","","","","[2,3]","1","3","403.29999999701977","0","[1620,1080]","1","[0,1]","1","1","294.09999999403954","1","1","[""#48a782"",""#955db9""]","[""#7f5d5d"",""#5f6f81""]","20","false","[0.307,0.313,0.421,0.737]","2","0",""
"","","","","","two-step-trial","47","290189","0.0-25.0-0.0","","","","","","","","","[2,3]","1","3","384.40000000596046","0","[1620,1080]","1","[0,1]","1","1","280.79999999701977","1","1","[""#48a782"",""#955db9""]","[""#7f5d5d"",""#5f6f81""]","21","false","[0.31,0.305,0.401,0.745]","2","0",""
"","","","","","two-step-trial","48","293506","0.0-26.0-0.0","","","","","","","","","[0,1]","0","0","1023.7999999970198","0","[1620,1080]","1","[0,1]","1","1","279.70000000298023","0","0","[""#48a782"",""#955db9""]","[""#7f5d5d"",""#5f6f81""]","22","false","[0.326,0.31,0.391,0.735]","2","0",""
"","","","","","two-step-trial","49","296248","0.0-27.0-0.0","","","","","","","","","[2,3]","0","2","419.79999999701977","0","[1620,1080]","1","[0,1]","1","1","295.29999999701977","1","1","[""#48a782"",""#955db9""]","[""#7f5d5d"",""#5f6f81""]","23","false","[0.331,0.302,0.379,0.741]","2","0",""
"","","","","","two-step-trial","50","298861","0.0-28.0-0.0","","","","","","","","","[2,3]","1","3","315.79999999701977","0","[1620,1080]","1","[0,1]","1","1","258.59999999403954","1","1","[""#48a782"",""#955db9""]","[""#7f5d5d"",""#5f6f81""]","24","false","[0.358,0.323,0.393,0.738]","2","0",""
"","","","","","two-step-trial","51","301483","0.0-29.0-0.0","","","","","","","","","[0,1]","1","1","329.8999999910593","0","[1620,1080]","1","[0,1]","0","0","272.3999999910593","1","0","[""#48a782"",""#955db9""]","[""#7f5d5d"",""#5f6f81""]","25","false","[0.342,0.299,0.368,0.724]","2","0",""
"","","","","","two-step-trial","52","304591","0.0-30.0-0.0","","","","","","","","","[0,1]","0","0","492.90000000596046","1","[1620,1080]","1","[0,1]","0","0","360.79999999701977","1","0","[""#48a782"",""#955db9""]","[""#7f5d5d"",""#5f6f81""]","26","false","[0.362,0.294,0.373,0.738]","2","0",""
"","","","","","two-step-trial","53","307358","0.0-31.0-0.0","","","","","","","","","[0,1]","0","0","455.19999998807907","1","[1620,1080]","1","[0,1]","0","0","270.6000000089407","1","0","[""#48a782"",""#955db9""]","[""#7f5d5d"",""#5f6f81""]","27","false","[0.332,0.286,0.389,0.683]","2","0",""
"","","","","","two-step-trial","54","310581","0.0-32.0-0.0","","","","","","","","","[0,1]","0","0","430.79999999701977","0","[1620,1080]","1","[0,1]","0","0","348.70000000298023","1","0","[""#48a782"",""#955db9""]","[""#7f5d5d"",""#5f6f81""]","28","false","[0.34,0.303,0.383,0.689]","2","0",""
"","","","","","two-step-trial","55","313275","0.0-33.0-0.0","","","","","","","","","[0,1]","0","0","347.40000000596046","0","[1620,1080]","1","[0,1]","0","0","330.8999999910593","1","0","[""#48a782"",""#955db9""]","[""#7f5d5d"",""#5f6f81""]","29","false","[0.317,0.302,0.385,0.679]","2","0",""
"","","","","","two-step-trial","56","315891","0.0-34.0-0.0","","","","","","","","","[0,1]","1","1","265.20000000298023","0","[1620,1080]","1","[0,1]","1","1","323.20000000298023","0","0","[""#48a782"",""#955db9""]","[""#7f5d5d"",""#5f6f81""]","30","false","[0.353,0.346,0.414,0.681]","2","0",""
"","","","","","two-step-trial","57","319008","0.0-35.0-0.0","","","","","","","","","[0,1]","0","0","742","1","[1620,1080]","1","[0,1]","1","1","338.90000000596046","0","0","[""#48a782"",""#955db9""]","[""#7f5d5d"",""#5f6f81""]","31","false","[0.325,0.331,0.414,0.647]","2","0",""
"","","","","","two-step-trial","58","322588","0.0-36.0-0.0","","","","","","","","","[2,3]","1","3","385.29999999701977","1","[1620,1080]","1","[0,1]","1","1","270.70000000298023","1","1","[""#48a782"",""#955db9""]","[""#7f5d5d"",""#5f6f81""]","32","false","[0.328,0.33,0.383,0.663]","2","0",""
"","","","","","two-step-trial","59","325763","0.0-37.0-0.0","","","","","","","","","[2,3]","1","3","369.70000000298023","1","[1620,1080]","1","[0,1]","1","1","770.3999999910593","1","1","[""#48a782"",""#955db9""]","[""#7f5d5d"",""#5f6f81""]","33","false","[0.322,0.332,0.362,0.633]","2","0",""
"","","","","","two-step-trial","60","328584","0.0-38.0-0.0","","","","","","","","","[2,3]","1","3","302.5","0","[1620,1080]","1","[0,1]","1","1","316.70000000298023","1","1","[""#48a782"",""#955db9""]","[""#7f5d5d"",""#5f6f81""]","34","false","[0.322,0.307,0.363,0.617]","2","0",""
"","","","","","two-step-trial","61","331217","0.0-39.0-0.0","","","","","","","","","[2,3]","1","3","310.5","1","[1620,1080]","1","[0,1]","1","1","289.8999999910593","1","1","[""#48a782"",""#955db9""]","[""#7f5d5d"",""#5f6f81""]","35","false","[0.297,0.336,0.333,0.65]","2","0",""
"","","","","","two-step-trial","62","333855","0.0-40.0-0.0","","","","","","","","","[2,3]","1","3","270.40000000596046","1","[1620,1080]","1","[0,1]","1","1","345.1000000089407","1","1","[""#48a782"",""#955db9""]","[""#7f5d5d"",""#5f6f81""]","36","false","[0.326,0.343,0.331,0.633]","2","0",""
"","","","","","two-step-trial","63","336437","0.0-41.0-0.0","","","","","","","","","[2,3]","1","3","293.09999999403954","1","[1620,1080]","1","[0,1]","1","1","265.90000000596046","1","1","[""#48a782"",""#955db9""]","[""#7f5d5d"",""#5f6f81""]","37","false","[0.318,0.324,0.327,0.612]","2","0",""
"","","","","","two-step-trial","64","339591","0.0-42.0-0.0","","","","","","","","","[2,3]","1","3","385.6000000089407","1","[1620,1080]","1","[0,1]","1","1","378.59999999403954","1","1","[""#48a782"",""#955db9""]","[""#7f5d5d"",""#5f6f81""]","38","false","[0.304,0.324,0.319,0.591]","2","0",""
"","","","","","two-step-trial","65","342194","0.0-43.0-0.0","","","","","","","","","[2,3]","1","3","298.20000000298023","1","[1620,1080]","1","[0,1]","1","1","260.8999999910593","1","1","[""#48a782"",""#955db9""]","[""#7f5d5d"",""#5f6f81""]","39","false","[0.283,0.362,0.351,0.561]","2","0",""
"","","","","","two-step-trial","66","344646","0.0-44.0-0.0","","","","","","","","","[2,3]","1","3","316.69999998807907","0","[1620,1080]","1","[0,1]","1","1","104.1000000089407","1","1","[""#48a782"",""#955db9""]","[""#7f5d5d"",""#5f6f81""]","40","false","[0.295,0.387,0.331,0.546]","2","0",""
"","","","","","two-step-trial","67","347178","0.0-45.0-0.0","","","","","","","","","[2,3]","1","3","315.3999999910593","0","[1620,1080]","1","[0,1]","1","1","202.69999998807907","1","1","[""#48a782"",""#955db9""]","[""#7f5d5d"",""#5f6f81""]","41","false","[0.293,0.385,0.33,0.584]","2","0",""
"","","","","","two-step-trial","68","349683","0.0-46.0-0.0","","","","","","","","","[0,1]","1","1","250.5","1","[1620,1080]","1","[0,1]","0","0","235.09999999403954","1","0","[""#48a782"",""#955db9""]","[""#7f5d5d"",""#5f6f81""]","42","false","[0.304,0.383,0.318,0.562]","2","0",""
"","","","","","two-step-trial","69","352295","0.0-47.0-0.0","","","","","","","","","[2,3]","1","3","278.69999998807907","1","[1620,1080]","1","[0,1]","0","0","298.5","0","1","[""#48a782"",""#955db9""]","[""#7f5d5d"",""#5f6f81""]","43","false","[0.318,0.398,0.315,0.576]","2","0",""
"","","","","","two-step-trial","70","355062","0.0-48.0-0.0","","","","","","","","","[2,3]","1","3","331.20000000298023","0","[1620,1080]","1","[0,1]","0","0","408.20000000298023","0","1","[""#48a782"",""#955db9""]","[""#7f5d5d"",""#5f6f81""]","44","false","[0.321,0.371,0.348,0.616]","2","0",""
"","","","","","two-step-trial","71","357674","0.0-49.0-0.0","","","","","","","","","[0,1]","1","1","317.79999999701977","0","[1620,1080]","1","[0,1]","0","0","274.79999999701977","1","0","[""#48a782"",""#955db9""]","[""#7f5d5d"",""#5f6f81""]","45","false","[0.319,0.418,0.367,0.598]","2","0",""
"","","","","","two-step-trial","72","360260","0.0-50.0-0.0","","","","","","","","","[0,1]","1","1","270.5","0","[1620,1080]","1","[0,1]","0","0","303.1000000089407","1","0","[""#48a782"",""#955db9""]","[""#7f5d5d"",""#5f6f81""]","46","false","[0.326,0.44,0.366,0.588]","2","0",""
"","","","","","two-step-trial","73","362938","0.0-51.0-0.0","","","","","","","","","[0,1]","1","1","255.1000000089407","0","[1620,1080]","1","[0,1]","0","0","396.5","1","0","[""#48a782"",""#955db9""]","[""#7f5d5d"",""#5f6f81""]","47","false","[0.315,0.46,0.378,0.597]","2","0",""
"","","","","","two-step-trial","74","365576","0.0-52.0-0.0","","","","","","","","","[0,1]","0","0","319.3999999910593","1","[1620,1080]","1","[0,1]","0","0","282","1","0","[""#48a782"",""#955db9""]","[""#7f5d5d"",""#5f6f81""]","48","false","[0.281,0.476,0.36,0.571]","2","0",""
"","","","","","two-step-trial","75","368600","0.0-53.0-0.0","","","","","","","","","[2,3]","1","3","729","0","[1620,1080]","1","[0,1]","0","0","264.70000000298023","0","1","[""#48a782"",""#955db9""]","[""#7f5d5d"",""#5f6f81""]","49","false","[0.254,0.439,0.383,0.579]","2","0",""
"","","","","","two-step-trial","76","371589","0.0-54.0-0.0","","","","","","","","","[0,1]","0","0","419.29999999701977","0","[1620,1080]","1","[0,1]","0","0","230.70000000298023","1","0","[""#48a782"",""#955db9""]","[""#7f5d5d"",""#5f6f81""]","50","false","[0.303,0.471,0.392,0.592]","2","0",""
"","","","","","two-step-trial","77","374196","0.0-55.0-0.0","","","","","","","","","[2,3]","0","2","301.8999999910593","0","[1620,1080]","1","[0,1]","0","0","286.1000000089407","0","1","[""#48a782"",""#955db9""]","[""#7f5d5d"",""#5f6f81""]","51","false","[0.274,0.41,0.377,0.587]","2","0",""
"","","","","","two-step-trial","78","377290","0.0-56.0-0.0","","","","","","","","","[0,1]","0","0","499.20000000298023","0","[1620,1080]","1","[0,1]","0","0","282.90000000596046","1","0","[""#48a782"",""#955db9""]","[""#7f5d5d"",""#5f6f81""]","52","false","[0.29,0.413,0.363,0.572]","2","0",""
"","","","","","two-step-trial","79","380157","0.0-57.0-0.0","","","","","","","","","[2,3]","1","3","273.3999999910593","1","[1620,1080]","1","[0,1]","1","1","560.9000000059605","1","1","[""#48a782"",""#955db9""]","[""#7f5d5d"",""#5f6f81""]","53","false","[0.292,0.425,0.318,0.522]","2","0",""
"","","","","","two-step-trial","80","383142","0.0-58.0-0.0","","","","","","","","","[2,3]","1","3","329.29999999701977","1","[1620,1080]","1","[0,1]","1","1","341.59999999403954","1","1","[""#48a782"",""#955db9""]","[""#7f5d5d"",""#5f6f81""]","54","false","[0.284,0.449,0.332,0.552]","2","0",""
"","","","","","two-step-trial","81","386146","0.0-59.0-0.0","","","","","","","","","[2,3]","1","3","484.5","1","[1620,1080]","1","[0,1]","1","1","488.20000000298023","1","1","[""#48a782"",""#955db9""]","[""#7f5d5d"",""#5f6f81""]","55","false","[0.253,0.41,0.344,0.579]","2","0",""
"","","","","","two-step-trial","82","389555","0.0-60.0-0.0","","","","","","","","","[0,1]","1","1","298.1000000089407","1","[1620,1080]","1","[0,1]","1","1","320","0","0","[""#48a782"",""#955db9""]","[""#7f5d5d"",""#5f6f81""]","56","false","[0.277,0.408,0.373,0.526]","2","0",""
"","","","","","two-step-trial","83","392388","0.0-61.0-0.0","","","","","","","","","[2,3]","1","3","356.20000000298023","0","[1620,1080]","1","[0,1]","1","1","450.20000000298023","1","1","[""#48a782"",""#955db9""]","[""#7f5d5d"",""#5f6f81""]","57","false","[0.252,0.418,0.356,0.521]","2","0",""
"","","","","","two-step-trial","84","395586","0.0-62.0-0.0","","","","","","","","","[2,3]","1","3","300.20000000298023","0","[1620,1080]","1","[0,1]","1","1","388.90000000596046","1","1","[""#48a782"",""#955db9""]","[""#7f5d5d"",""#5f6f81""]","58","false","[0.282,0.462,0.395,0.504]","2","0",""
"","","","","","two-step-trial","85","398454","0.0-63.0-0.0","","","","","","","","","[2,3]","1","3","472.29999999701977","0","[1620,1080]","1","[0,1]","1","1","373.29999999701977","1","1","[""#48a782"",""#955db9""]","[""#7f5d5d"",""#5f6f81""]","59","false","[0.297,0.475,0.39,0.498]","2","0",""
"","","","","","two-step-trial","86","403399","0.0-64.0-0.0","","","","","","","","","[2,3]","1","3","610.7000000029802","0","[1620,1080]","1","[0,1]","1","1","2251.2999999970198","1","1","[""#48a782"",""#955db9""]","[""#7f5d5d"",""#5f6f81""]","60","false","[0.295,0.463,0.364,0.52]","2","0",""
"","","","","","two-step-trial","87","419591","0.0-65.0-0.0","","","","","","","","","[0,1]","null","null","null","null","[1620,1080]","1","[0,1]","null","null","null","1","null","[""#48a782"",""#955db9""]","[""#7f5d5d"",""#5f6f81""]","61","true","[0.295,0.433,0.355,0.543]","2","0",""
"","","","","","two-step-trial","88","423037","0.0-65.1-0.1","","","","","","","","","[2,3]","1","3","1245.9000000059605","0","[1620,1080]","1","[0,1]","1","1","174.70000000298023","1","1","[""#48a782"",""#955db9""]","[""#7f5d5d"",""#5f6f81""]","61","false","[0.295,0.433,0.355,0.543]","2","0",""
"","","","","","two-step-trial","89","426149","0.0-66.0-0.0","","","","","","","","","[2,3]","1","3","417.1000000089407","1","[1620,1080]","1","[0,1]","1","1","673.3000000119209","1","1","[""#48a782"",""#955db9""]","[""#7f5d5d"",""#5f6f81""]","62","false","[0.307,0.43,0.353,0.543]","2","0",""
"","","","","","two-step-trial","90","429029","0.0-67.0-0.0","","","","","","","","","[0,1]","1","1","461.69999998807907","0","[1620,1080]","1","[0,1]","1","1","391.80000001192093","0","0","[""#48a782"",""#955db9""]","[""#7f5d5d"",""#5f6f81""]","63","false","[0.353,0.426,0.367,0.529]","2","0",""
"","","","","","two-step-trial","91","432345","0.0-68.0-0.0","","","","","","","","","[2,3]","1","3","554.3999999910593","0","[1620,1080]","1","[0,1]","1","1","360.90000000596046","1","1","[""#48a782"",""#955db9""]","[""#7f5d5d"",""#5f6f81""]","64","false","[0.37,0.432,0.33,0.47]","2","0",""
"","","","","","two-step-trial","92","435477","0.0-69.0-0.0","","","","","","","","","[2,3]","1","3","400.8999999910593","0","[1620,1080]","1","[0,1]","1","1","699.2000000029802","1","1","[""#48a782"",""#955db9""]","[""#7f5d5d"",""#5f6f81""]","65","false","[0.377,0.393,0.348,0.501]","2","0",""
"","","","","","two-step-trial","93","439264","0.0-70.0-0.0","","","","","","","","","[0,1]","1","1","458.20000000298023","1","[1620,1080]","1","[0,1]","1","1","309.79999999701977","0","0","[""#48a782"",""#955db9""]","[""#7f5d5d"",""#5f6f81""]","66","false","[0.345,0.371,0.258,0.459]","2","0",""
"","","","","","two-step-trial","94","442409","0.0-71.0-0.0","","","","","","","","","[0,1]","1","1","434","0","[1620,1080]","1","[0,1]","0","0","672.4000000059605","1","0","[""#48a782"",""#955db9""]","[""#7f5d5d"",""#5f6f81""]","67","false","[0.332,0.355,0.256,0.426]","2","0",""
"","","","","","two-step-trial","95","445465","0.0-72.0-0.0","","","","","","","","","[0,1]","1","1","453.5","1","[1620,1080]","1","[0,1]","0","0","575.5999999940395","1","0","[""#48a782"",""#955db9""]","[""#7f5d5d"",""#5f6f81""]","68","false","[0.331,0.398,0.311,0.426]","2","0",""
"","","","","","two-step-trial","96","449592","0.0-73.0-0.0","","","","","","","","","[0,1]","1","1","826.3999999910593","0","[1620,1080]","1","[0,1]","0","0","302.20000000298023","1","0","[""#48a782"",""#955db9""]","[""#7f5d5d"",""#5f6f81""]","69","false","[0.325,0.426,0.326,0.384]","2","0",""
"","","","","","two-step-trial","97","452947","0.0-74.0-0.0","","","","","","","","","[0,1]","1","1","693","0","[1620,1080]","1","[0,1]","0","0","636.9000000059605","1","0","[""#48a782"",""#955db9""]","[""#7f5d5d"",""#5f6f81""]","70","false","[0.293,0.475,0.305,0.375]","2","0",""
"","","","","","two-step-trial","98","456536","0.0-75.0-0.0","","","","","","","","","[2,3]","1","3","599.9000000059605","0","[1620,1080]","1","[0,1]","0","0","325.70000000298023","0","1","[""#48a782"",""#955db9""]","[""#7f5d5d"",""#5f6f81""]","71","false","[0.268,0.51,0.303,0.365]","2","0",""
"","","","","","two-step-trial","99","459952","0.0-76.0-0.0","","","","","","","","","[0,1]","0","0","409","0","[1620,1080]","1","[0,1]","0","0","966","1","0","[""#48a782"",""#955db9""]","[""#7f5d5d"",""#5f6f81""]","72","false","[0.294,0.507,0.326,0.359]","2","0",""
"","","","","","two-step-trial","100","463081","0.0-77.0-0.0","","","","","","","","","[0,1]","1","1","524.7999999970198","1","[1620,1080]","1","[0,1]","0","0","571.2999999970198","1","0","[""#48a782"",""#955db9""]","[""#7f5d5d"",""#5f6f81""]","73","false","[0.296,0.541,0.313,0.367]","2","0",""
"","","","","","two-step-trial","101","465971","0.0-78.0-0.0","","","","","","","","","[2,3]","1","3","519.5","0","[1620,1080]","1","[0,1]","0","0","344.90000000596046","0","1","[""#48a782"",""#955db9""]","[""#7f5d5d"",""#5f6f81""]","74","false","[0.282,0.491,0.339,0.374]","2","0",""
"","","","","","two-step-trial","102","469248","0.0-79.0-0.0","","","","","","","","","[2,3]","0","2","443.20000000298023","1","[1620,1080]","1","[0,1]","0","0","288.5","0","1","[""#48a782"",""#955db9""]","[""#7f5d5d"",""#5f6f81""]","75","false","[0.336,0.513,0.333,0.367]","2","0",""
"","","","","","two-step-instructions","103","489025","0.0-80.0","19771.69999998808","","","[{""page_index"":0,""viewing_time"":15364.699999988079},{""page_index"":1,""viewing_time"":4406.300000011921}]","","","","","","","","","","","","","","","","","","","","","","","","",""
"","","","","","two-step-trial","104","492094","0.0-81.0-0.0","","","","","","","","","[2,3]","1","3","386.70000000298023","1","[1620,1080]","1","[0,1]","1","1","642.6000000089407","1","1","[""#48a782"",""#955db9""]","[""#7f5d5d"",""#5f6f81""]","76","false","[0.344,0.538,0.274,0.339]","2","0",""
"","","","","","two-step-trial","105","495587","0.0-82.0-0.0","","","","","","","","","[2,3]","1","3","364.40000000596046","1","[1620,1080]","1","[0,1]","1","1","294.20000000298023","1","1","[""#48a782"",""#955db9""]","[""#7f5d5d"",""#5f6f81""]","77","false","[0.322,0.54,0.262,0.343]","2","0",""
"","","","","","two-step-trial","106","498421","0.0-83.0-0.0","","","","","","","","","[2,3]","1","3","311.59999999403954","0","[1620,1080]","1","[0,1]","1","1","490.6000000089407","1","1","[""#48a782"",""#955db9""]","[""#7f5d5d"",""#5f6f81""]","78","false","[0.351,0.561,0.265,0.342]","2","0",""
"","","","","","two-step-trial","107","501100","0.0-84.0-0.0","","","","","","","","","[0,1]","1","1","390.40000000596046","1","[1620,1080]","1","[0,1]","1","1","262.20000000298023","0","0","[""#48a782"",""#955db9""]","[""#7f5d5d"",""#5f6f81""]","79","false","[0.335,0.543,0.286,0.35]","2","0",""
"","","","","","two-step-trial","108","503995","0.0-85.0-0.0","","","","","","","","","[2,3]","1","3","487.8999999910593","1","[1620,1080]","1","[0,1]","1","1","379.1000000089407","1","1","[""#48a782"",""#955db9""]","[""#7f5d5d"",""#5f6f81""]","80","false","[0.328,0.536,0.289,0.405]","2","0",""
"","","","","","two-step-trial","109","507579","0.0-86.0-0.0","","","","","","","","","[2,3]","1","3","367.6000000089407","1","[1620,1080]","1","[0,1]","1","1","268","1","1","[""#48a782"",""#955db9""]","[""#7f5d5d"",""#5f6f81""]","81","false","[0.286,0.534,0.265,0.391]","2","0",""
"","","","","","two-step-trial","110","510897","0.0-87.0-0.0","","","","","","","","","[0,1]","1","1","909.4000000059605","1","[1620,1080]","1","[0,1]","1","1","366.59999999403954","0","0","[""#48a782"",""#955db9""]","[""#7f5d5d"",""#5f6f81""]","82","false","[0.307,0.553,0.256,0.373]","2","0",""
"","","","","","two-step-trial","111","514233","0.0-88.0-0.0","","","","","","","","","[0,1]","1","1","400.79999999701977","0","[1620,1080]","1","[0,1]","1","1","268.40000000596046","0","0","[""#48a782"",""#955db9""]","[""#7f5d5d"",""#5f6f81""]","83","false","[0.306,0.564,0.273,0.38]","2","0",""
"","","","","","two-step-trial","112","517268","0.0-89.0-0.0","","","","","","","","","[0,1]","1","1","559.2000000029802","0","[1620,1080]","1","[0,1]","1","1","454.79999999701977","0","0","[""#48a782"",""#955db9""]","[""#7f5d5d"",""#5f6f81""]","84","false","[0.263,0.564,0.275,0.397]","2","0",""
"","","","","","two-step-trial","113","520583","0.0-90.0-0.0","","","","","","","","","[0,1]","0","0","646.3000000119209","0","[1620,1080]","1","[0,1]","1","1","297","0","0","[""#48a782"",""#955db9""]","[""#7f5d5d"",""#5f6f81""]","85","false","[0.295,0.592,0.3,0.406]","2","0",""
"","","","","","two-step-trial","114","523344","0.0-91.0-0.0","","","","","","","","","[2,3]","1","3","433","1","[1620,1080]","1","[0,1]","0","0","297.59999999403954","0","1","[""#48a782"",""#955db9""]","[""#7f5d5d"",""#5f6f81""]","86","false","[0.266,0.571,0.324,0.417]","2","0",""
"","","","","","two-step-trial","115","526578","0.0-92.0-0.0","","","","","","","","","[0,1]","1","1","560","0","[1620,1080]","1","[0,1]","0","0","406.5","1","0","[""#48a782"",""#955db9""]","[""#7f5d5d"",""#5f6f81""]","87","false","[0.25,0.532,0.345,0.39]","2","0",""
"","","","","","two-step-trial","116","529341","0.0-93.0-0.0","","","","","","","","","[2,3]","1","3","435.40000000596046","0","[1620,1080]","1","[0,1]","1","1","299.3999999910593","1","1","[""#48a782"",""#955db9""]","[""#7f5d5d"",""#5f6f81""]","88","false","[0.258,0.529,0.341,0.378]","2","0",""
"","","","","","two-step-trial","117","532584","0.0-94.0-0.0","","","","","","","","","[2,3]","1","3","409.19999998807907","1","[1620,1080]","1","[0,1]","1","1","346.3999999910593","1","1","[""#48a782"",""#955db9""]","[""#7f5d5d"",""#5f6f81""]","89","false","[0.266,0.533,0.306,0.41]","2","0",""
"","","","","","two-step-trial","118","535216","0.0-95.0-0.0","","","","","","","","","[2,3]","1","3","327.8999999910593","0","[1620,1080]","1","[0,1]","1","1","266.40000000596046","1","1","[""#48a782"",""#955db9""]","[""#7f5d5d"",""#5f6f81""]","90","false","[0.254,0.554,0.297,0.382]","2","0",""
"","","","","","two-step-trial","119","538585","0.0-96.0-0.0","","","","","","","","","[0,1]","1","1","317.70000000298023","1","[1620,1080]","1","[0,1]","1","1","337.40000000596046","0","0","[""#48a782"",""#955db9""]","[""#7f5d5d"",""#5f6f81""]","91","false","[0.265,0.543,0.313,0.38]","2","0",""
"","","","","","two-step-trial","120","541286","0.0-97.0-0.0","","","","","","","","","[0,1]","1","1","368.79999999701977","1","[1620,1080]","1","[0,1]","1","1","295.70000000298023","0","0","[""#48a782"",""#955db9""]","[""#7f5d5d"",""#5f6f81""]","92","false","[0.259,0.54,0.279,0.363]","2","0",""
"","","","","","two-step-trial","121","544579","0.0-98.0-0.0","","","","","","","","","[0,1]","1","1","378.59999999403954","0","[1620,1080]","1","[0,1]","1","1","371.09999999403954","0","0","[""#48a782"",""#955db9""]","[""#7f5d5d"",""#5f6f81""]","93","false","[0.251,0.565,0.296,0.35]","2","0",""
"","","","","","two-step-trial","122","547380","0.0-99.0-0.0","","","","","","","","","[0,1]","1","1","537.5","1","[1620,1080]","1","[0,1]","1","1","241.29999999701977","0","0","[""#48a782"",""#955db9""]","[""#7f5d5d"",""#5f6f81""]","94","false","[0.276,0.543,0.275,0.322]","2","0",""
"","","","","","two-step-trial","123","550591","0.0-100.0-0.0","","","","","","","","","[2,3]","1","3","479.20000000298023","0","[1620,1080]","1","[0,1]","1","1","384.40000000596046","1","1","[""#48a782"",""#955db9""]","[""#7f5d5d"",""#5f6f81""]","95","false","[0.317,0.539,0.285,0.291]","2","0",""
"","","","","","two-step-trial","124","553086","0.0-101.0-0.0","","","","","","","","","[0,1]","1","1","276.70000000298023","1","[1620,1080]","1","[0,1]","0","0","187.09999999403954","1","0","[""#48a782"",""#955db9""]","[""#7f5d5d"",""#5f6f81""]","96","false","[0.325,0.583,0.251,0.276]","2","0",""
"","","","","","two-step-trial","125","555702","0.0-102.0-0.0","","","","","","","","","[0,1]","1","1","284.5","0","[1620,1080]","1","[0,1]","0","0","303.59999999403954","1","0","[""#48a782"",""#955db9""]","[""#7f5d5d"",""#5f6f81""]","97","false","[0.352,0.597,0.278,0.336]","2","0",""
"","","","","","two-step-trial","126","558375","0.0-103.0-0.0","","","","","","","","","[0,1]","1","1","258","0","[1620,1080]","1","[0,1]","0","0","388.20000000298023","1","0","[""#48a782"",""#955db9""]","[""#7f5d5d"",""#5f6f81""]","98","false","[0.369,0.601,0.316,0.324]","2","0",""
"","","","","","two-step-trial","127","561579","0.0-104.0-0.0","","","","","","","","","[0,1]","1","1","595.2999999970198","1","[1620,1080]","1","[0,1]","0","0","287.8999999910593","1","0","[""#48a782"",""#955db9""]","[""#7f5d5d"",""#5f6f81""]","99","false","[0.338,0.574,0.29,0.307]","2","0",""
"","","","","","two-step-trial","128","564359","0.0-105.0-0.0","","","","","","","","","[0,1]","1","1","329","1","[1620,1080]","1","[0,1]","0","0","433.70000000298023","1","0","[""#48a782"",""#955db9""]","[""#7f5d5d"",""#5f6f81""]","100","false","[0.348,0.567,0.294,0.264]","2","0",""
"","","","","","two-step-trial","129","567588","0.0-106.0-0.0","","","","","","","","","[0,1]","1","1","331.40000000596046","0","[1620,1080]","1","[0,1]","0","0","343.3999999910593","1","0","[""#48a782"",""#955db9""]","[""#7f5d5d"",""#5f6f81""]","101","false","[0.332,0.536,0.335,0.261]","2","0",""
"","","","","","two-step-trial","130","570246","0.0-107.0-0.0","","","","","","","","","[2,3]","0","2","416.79999999701977","0","[1620,1080]","1","[0,1]","0","0","224.59999999403954","0","1","[""#48a782"",""#955db9""]","[""#7f5d5d"",""#5f6f81""]","102","false","[0.331,0.521,0.359,0.268]","2","0",""
"","","","","","two-step-trial","131","573584","0.0-108.0-0.0","","","","","","","","","[2,3]","1","3","326","1","[1620,1080]","1","[0,1]","1","1","601.7000000029802","1","1","[""#48a782"",""#955db9""]","[""#7f5d5d"",""#5f6f81""]","103","false","[0.317,0.518,0.371,0.309]","2","0",""
"","","","","","two-step-trial","132","576292","0.0-109.0-0.0","","","","","","","","","[2,3]","1","3","342.80000001192093","0","[1620,1080]","1","[0,1]","1","1","332.20000000298023","1","1","[""#48a782"",""#955db9""]","[""#7f5d5d"",""#5f6f81""]","104","false","[0.334,0.493,0.341,0.296]","2","0",""
"","","","","","two-step-trial","133","579593","0.0-110.0-0.0","","","","","","","","","[2,3]","1","3","403","1","[1620,1080]","1","[0,1]","1","1","284.59999999403954","1","1","[""#48a782"",""#955db9""]","[""#7f5d5d"",""#5f6f81""]","105","false","[0.349,0.494,0.34,0.27]","2","0",""
"","","","","","two-step-trial","134","583292","0.0-111.0-0.0","","","","","","","","","[2,3]","1","3","762.6999999880791","0","[1620,1080]","1","[0,1]","1","1","885.7000000029802","1","1","[""#48a782"",""#955db9""]","[""#7f5d5d"",""#5f6f81""]","106","false","[0.302,0.497,0.307,0.282]","2","0",""
"","","","","","two-step-trial","135","586591","0.0-112.0-0.0","","","","","","","","","[0,1]","1","1","579.4000000059605","1","[1620,1080]","1","[0,1]","1","1","312.79999999701977","0","0","[""#48a782"",""#955db9""]","[""#7f5d5d"",""#5f6f81""]","107","false","[0.336,0.523,0.294,0.315]","2","0",""
"","","","","","two-step-trial","136","589014","0.0-113.0-0.0","","","","","","","","","[0,1]","1","1","306","0","[1620,1080]","1","[0,1]","0","0","74.79999999701977","1","0","[""#48a782"",""#955db9""]","[""#7f5d5d"",""#5f6f81""]","108","false","[0.381,0.482,0.317,0.324]","2","0",""
"","","","","","two-step-trial","137","592590","0.0-114.0-0.0","","","","","","","","","[0,1]","1","1","283.20000000298023","0","[1620,1080]","1","[0,1]","0","0","800.9000000059605","1","0","[""#48a782"",""#955db9""]","[""#7f5d5d"",""#5f6f81""]","109","false","[0.342,0.505,0.32,0.33]","2","0",""
"","","","","","two-step-trial","138","595271","0.0-115.0-0.0","","","","","","","","","[2,3]","0","2","338.5","0","[1620,1080]","1","[0,1]","0","0","314.8999999910593","0","1","[""#48a782"",""#955db9""]","[""#7f5d5d"",""#5f6f81""]","110","false","[0.337,0.526,0.318,0.349]","2","0",""
"","","","","","two-step-trial","139","598585","0.0-116.0-0.0","","","","","","","","","[0,1]","0","0","313.5","0","[1620,1080]","1","[0,1]","0","0","406.79999999701977","1","0","[""#48a782"",""#955db9""]","[""#7f5d5d"",""#5f6f81""]","111","false","[0.374,0.551,0.269,0.35]","2","0",""
"","","","","","two-step-trial","140","601227","0.0-117.0-0.0","","","","","","","","","[2,3]","1","3","303","0","[1620,1080]","1","[0,1]","1","1","319","1","1","[""#48a782"",""#955db9""]","[""#7f5d5d"",""#5f6f81""]","112","false","[0.355,0.517,0.255,0.331]","2","0",""
"","","","","","two-step-trial","141","604591","0.0-118.0-0.0","","","","","","","","","[0,1]","0","0","369.8999999910593","1","[1620,1080]","1","[0,1]","1","1","395","0","0","[""#48a782"",""#955db9""]","[""#7f5d5d"",""#5f6f81""]","113","false","[0.331,0.507,0.283,0.271]","2","0",""
"","","","","","two-step-trial","142","607315","0.0-119.0-0.0","","","","","","","","","[2,3]","0","2","341.19999998807907","0","[1620,1080]","1","[0,1]","0","0","344.29999999701977","0","1","[""#48a782"",""#955db9""]","[""#7f5d5d"",""#5f6f81""]","114","false","[0.326,0.467,0.284,0.267]","2","0",""
"","","","","","two-step-trial","143","610590","0.0-120.0-0.0","","","","","","","","","[0,1]","0","0","422.69999998807907","0","[1620,1080]","1","[0,1]","0","0","295.5","1","0","[""#48a782"",""#955db9""]","[""#7f5d5d"",""#5f6f81""]","115","false","[0.313,0.494,0.291,0.251]","2","0",""
"","","","","","two-step-trial","144","613108","0.0-121.0-0.0","","","","","","","","","[0,1]","1","1","224.5","0","[1620,1080]","1","[0,1]","0","0","262.70000000298023","1","0","[""#48a782"",""#955db9""]","[""#7f5d5d"",""#5f6f81""]","116","false","[0.319,0.494,0.296,0.273]","2","0",""
"","","","","","two-step-trial","145","615783","0.0-122.0-0.0","","","","","","","","","[0,1]","1","1","332.20000000298023","1","[1620,1080]","1","[0,1]","1","1","316.59999999403954","0","0","[""#48a782"",""#955db9""]","[""#7f5d5d"",""#5f6f81""]","117","false","[0.297,0.492,0.312,0.277]","2","0",""
"","","","","","two-step-trial","146","618550","0.0-123.0-0.0","","","","","","","","","[2,3]","1","3","453.40000000596046","0","[1620,1080]","1","[0,1]","1","1","280.59999999403954","1","1","[""#48a782"",""#955db9""]","[""#7f5d5d"",""#5f6f81""]","118","false","[0.288,0.513,0.36,0.275]","2","0",""
"","","","","","two-step-trial","147","621579","0.0-124.0-0.0","","","","","","","","","[0,1]","0","0","375.79999999701977","0","[1620,1080]","1","[0,1]","1","1","501.40000000596046","0","0","[""#48a782"",""#955db9""]","[""#7f5d5d"",""#5f6f81""]","119","false","[0.304,0.552,0.392,0.266]","2","0",""
"","","","","","two-step-trial","148","624300","0.0-125.0-0.0","","","","","","","","","[0,1]","0","0","490.3999999910593","1","[1620,1080]","1","[0,1]","1","1","204.79999999701977","0","0","[""#48a782"",""#955db9""]","[""#7f5d5d"",""#5f6f81""]","120","false","[0.295,0.538,0.367,0.253]","2","0",""
"","","","","","two-step-trial","149","627583","0.0-126.0-0.0","","","","","","","","","[2,3]","1","3","704.2000000029802","0","[1620,1080]","1","[0,1]","1","1","283.5","1","1","[""#48a782"",""#955db9""]","[""#7f5d5d"",""#5f6f81""]","121","false","[0.268,0.49,0.389,0.267]","2","0",""
"","","","","","two-step-trial","150","630369","0.0-127.0-0.0","","","","","","","","","[2,3]","1","3","448.59999999403954","1","[1620,1080]","1","[0,1]","1","1","313.80000001192093","1","1","[""#48a782"",""#955db9""]","[""#7f5d5d"",""#5f6f81""]","122","false","[0.292,0.548,0.366,0.262]","2","0",""
"","","","","","two-step-trial","151","633580","0.0-128.0-0.0","","","","","","","","","[2,3]","1","3","324.6000000089407","0","[1620,1080]","1","[0,1]","1","1","261.09999999403954","1","1","[""#48a782"",""#955db9""]","[""#7f5d5d"",""#5f6f81""]","123","false","[0.287,0.579,0.38,0.276]","2","0",""
"","","","","","two-step-trial","152","636719","0.0-129.0-0.0","","","","","","","","","[2,3]","1","3","702.8999999910593","0","[1620,1080]","1","[0,1]","0","0","391.20000000298023","0","1","[""#48a782"",""#955db9""]","[""#7f5d5d"",""#5f6f81""]","124","false","[0.296,0.64,0.405,0.262]","2","0",""
"","","","","","two-step-trial","153","639582","0.0-130.0-0.0","","","","","","","","","[0,1]","1","1","489.09999999403954","0","[1620,1080]","1","[0,1]","0","0","324.20000000298023","1","0","[""#48a782"",""#955db9""]","[""#7f5d5d"",""#5f6f81""]","125","false","[0.25,0.637,0.448,0.25]","2","0",""
"","","","","","two-step-trial","154","642219","0.0-131.0-0.0","","","","","","","","","[0,1]","0","0","301.70000000298023","0","[1620,1080]","1","[0,1]","0","0","317","1","0","[""#48a782"",""#955db9""]","[""#7f5d5d"",""#5f6f81""]","126","false","[0.255,0.666,0.447,0.257]","2","0",""
"","","","","","two-step-trial","155","644877","0.0-132.0-0.0","","","","","","","","","[2,3]","0","2","277","1","[1620,1080]","1","[0,1]","0","0","357.90000000596046","0","1","[""#48a782"",""#955db9""]","[""#7f5d5d"",""#5f6f81""]","127","false","[0.281,0.695,0.433,0.272]","2","0",""
"","","","","","two-step-trial","156","647494","0.0-133.0-0.0","","","","","","","","","[0,1]","0","0","324.70000000298023","0","[1620,1080]","1","[0,1]","1","1","273.79999999701977","0","0","[""#48a782"",""#955db9""]","[""#7f5d5d"",""#5f6f81""]","128","false","[0.277,0.667,0.42,0.278]","2","0",""
"","","","","","two-step-trial","157","650129","0.0-134.0-0.0","","","","","","","","","[0,1]","0","0","369.40000000596046","1","[1620,1080]","1","[0,1]","1","1","239.79999999701977","0","0","[""#48a782"",""#955db9""]","[""#7f5d5d"",""#5f6f81""]","129","false","[0.318,0.661,0.46,0.294]","2","0",""
"","","","","","two-step-trial","158","652821","0.0-135.0-0.0","","","","","","","","","[0,1]","0","0","435","0","[1620,1080]","1","[0,1]","1","1","231","0","0","[""#48a782"",""#955db9""]","[""#7f5d5d"",""#5f6f81""]","130","false","[0.306,0.677,0.461,0.259]","2","0",""
"","","","","","two-step-trial","159","655588","0.0-136.0-0.0","","","","","","","","","[2,3]","0","2","414.29999999701977","0","[1620,1080]","1","[0,1]","1","1","210","1","1","[""#48a782"",""#955db9""]","[""#7f5d5d"",""#5f6f81""]","131","false","[0.35,0.655,0.474,0.278]","2","0",""
"","","","","","two-step-trial","160","658576","0.0-137.0-0.0","","","","","","","","","[2,3]","0","2","731.7000000029802","0","[1620,1080]","1","[0,1]","1","1","216.3999999910593","1","1","[""#48a782"",""#955db9""]","[""#7f5d5d"",""#5f6f81""]","132","false","[0.352,0.663,0.445,0.297]","2","0",""
"","","","","","two-step-trial","161","661584","0.0-138.0-0.0","","","","","","","","","[2,3]","1","3","377.5","0","[1620,1080]","1","[0,1]","1","1","338.5","1","1","[""#48a782"",""#955db9""]","[""#7f5d5d"",""#5f6f81""]","133","false","[0.374,0.662,0.412,0.314]","2","0",""
"","","","","","two-step-trial","162","664218","0.0-139.0-0.0","","","","","","","","","[0,1]","1","1","316.6000000089407","1","[1620,1080]","1","[0,1]","1","1","290.09999999403954","0","0","[""#48a782"",""#955db9""]","[""#7f5d5d"",""#5f6f81""]","134","false","[0.405,0.666,0.424,0.315]","2","0",""
"","","","","","two-step-trial","163","667586","0.0-140.0-0.0","","","","","","","","","[2,3]","1","3","581.7999999970198","1","[1620,1080]","1","[0,1]","0","0","302.70000000298023","0","1","[""#48a782"",""#955db9""]","[""#7f5d5d"",""#5f6f81""]","135","false","[0.43,0.696,0.452,0.345]","2","0",""
"","","","","","two-step-trial","164","670457","0.0-141.0-0.0","","","","","","","","","[0,1]","1","1","437.20000000298023","1","[1620,1080]","1","[0,1]","0","0","401.70000000298023","1","0","[""#48a782"",""#955db9""]","[""#7f5d5d"",""#5f6f81""]","136","false","[0.426,0.681,0.444,0.337]","2","0",""
"","","","","","two-step-trial","165","673589","0.0-142.0-0.0","","","","","","","","","[0,1]","1","1","357.70000000298023","0","[1620,1080]","1","[0,1]","0","0","553.9000000059605","1","0","[""#48a782"",""#955db9""]","[""#7f5d5d"",""#5f6f81""]","137","false","[0.411,0.674,0.45,0.299]","2","0",""
"","","","","","two-step-trial","166","676186","0.0-143.0-0.0","","","","","","","","","[0,1]","1","1","303.40000000596046","1","[1620,1080]","1","[0,1]","0","0","266.1000000089407","1","0","[""#48a782"",""#955db9""]","[""#7f5d5d"",""#5f6f81""]","138","false","[0.414,0.699,0.459,0.339]","2","0",""
"","","","","","two-step-trial","167","679589","0.0-144.0-0.0","","","","","","","","","[0,1]","1","1","317.19999998807907","1","[1620,1080]","1","[0,1]","0","0","409.40000000596046","1","0","[""#48a782"",""#955db9""]","[""#7f5d5d"",""#5f6f81""]","139","false","[0.394,0.734,0.462,0.307]","2","0",""
"","","","","","two-step-trial","168","682221","0.0-145.0-0.0","","","","","","","","","[0,1]","1","1","264.30000001192093","0","[1620,1080]","1","[0,1]","0","0","335.59999999403954","1","0","[""#48a782"",""#955db9""]","[""#7f5d5d"",""#5f6f81""]","140","false","[0.361,0.693,0.467,0.292]","2","0",""
"","","","","","two-step-trial","169","684869","0.0-146.0-0.0","","","","","","","","","[0,1]","1","1","307.59999999403954","1","[1620,1080]","1","[0,1]","0","0","316.70000000298023","1","0","[""#48a782"",""#955db9""]","[""#7f5d5d"",""#5f6f81""]","141","false","[0.354,0.722,0.46,0.26]","2","0",""
"","","","","","two-step-trial","170","687619","0.0-147.0-0.0","","","","","","","","","[0,1]","1","1","320.3999999910593","1","[1620,1080]","1","[0,1]","0","0","399.90000000596046","1","0","[""#48a782"",""#955db9""]","[""#7f5d5d"",""#5f6f81""]","142","false","[0.353,0.749,0.428,0.301]","2","0",""
"","","","","","two-step-trial","171","690200","0.0-148.0-0.0","","","","","","","","","[0,1]","1","1","287.20000000298023","1","[1620,1080]","1","[0,1]","0","0","271.20000000298023","1","0","[""#48a782"",""#955db9""]","[""#7f5d5d"",""#5f6f81""]","143","false","[0.361,0.73,0.409,0.316]","2","0",""
"","","","","","two-step-trial","172","692922","0.0-149.0-0.0","","","","","","","","","[0,1]","1","1","322.5","1","[1620,1080]","1","[0,1]","0","0","380.70000000298023","1","0","[""#48a782"",""#955db9""]","[""#7f5d5d"",""#5f6f81""]","144","false","[0.295,0.721,0.424,0.316]","2","0",""
"","","","","","two-step-trial","173","695556","0.0-150.0-0.0","","","","","","","","","[2,3]","1","3","339.6000000089407","1","[1620,1080]","1","[0,1]","0","0","278","0","1","[""#48a782"",""#955db9""]","[""#7f5d5d"",""#5f6f81""]","145","false","[0.287,0.742,0.437,0.287]","2","0",""
"","","","","","two-step-trial","174","698804","0.0-151.0-0.0","","","","","","","","","[0,1]","1","1","485.09999999403954","1","[1620,1080]","1","[0,1]","0","0","747.9000000059605","1","0","[""#48a782"",""#955db9""]","[""#7f5d5d"",""#5f6f81""]","146","false","[0.278,0.742,0.427,0.31]","2","0",""
"","","","","","two-step-trial","175","702578","0.0-152.0-0.0","","","","","","","","","[0,1]","1","1","360.3999999910593","1","[1620,1080]","1","[0,1]","0","0","409.5","1","0","[""#48a782"",""#955db9""]","[""#7f5d5d"",""#5f6f81""]","147","false","[0.277,0.741,0.475,0.282]","2","0",""
"","","","","","two-step-trial","176","705500","0.0-153.0-0.0","","","","","","","","","[2,3]","1","3","324.29999999701977","0","[1620,1080]","1","[0,1]","0","0","570.8999999910593","0","1","[""#48a782"",""#955db9""]","[""#7f5d5d"",""#5f6f81""]","148","false","[0.264,0.733,0.497,0.268]","2","0",""
"","","","","","two-step-trial","177","708042","0.0-154.0-0.0","","","","","","","","","[0,1]","1","1","210.20000000298023","1","[1620,1080]","1","[0,1]","0","0","299.59999999403954","1","0","[""#48a782"",""#955db9""]","[""#7f5d5d"",""#5f6f81""]","149","false","[0.258,0.74,0.534,0.264]","2","0",""
"","","","","","two-step-trial","178","710841","0.0-155.0-0.0","","","","","","","","","[0,1]","1","1","310","1","[1620,1080]","1","[0,1]","0","0","443.30000001192093","1","0","[""#48a782"",""#955db9""]","[""#7f5d5d"",""#5f6f81""]","150","false","[0.326,0.735,0.576,0.271]","2","0",""
"","","","","","two-step-instructions","179","721765","0.0-156.0","10917.79999999702","","","[{""page_index"":0,""viewing_time"":10916.79999999702}]","","","","","","","","","","","","","","","","","","","","","","","","",""
"","","","","","two-step-comprehension","180","731174","0.0-157.0","9400.70000000298","","","","[""green"",""purple""]","0","","","","","","","","","","","","","","","","","","","","","","","[{""event"":""fullscreenenter"",""trial"":1,""time"":3157}]"
