"success","timeout","failed_images","failed_audio","failed_video","trial_type","trial_index","time_elapsed","internal_node_id","rt","stimulus","response","view_history","state_1_ids","state_1_key","state_1_choice","state_1_rt","transition","state","state_2_ids","state_2_key","state_2_choice","state_2_rt","outcome","rocket_colors","planet_colors","screen_resolution","minimum_resolution","trial","drifts","drift_ix","browser_interactions","missing","responses","num_errors","interactions"
"true","false","[]","[]","[]","preload","0","133","0.0-0.0","","","","","","","","","","","","","","","","","","","","","","","","","","",""
"true","","","","","fullscreen","1","3603","0.0-1.0","","","","","","","","","","","","","","","","","","","","","","","","","","",""
"","","","","","html-keyboard-response","2","9030","0.0-2.0","5426.5","<p>You are starting a demo of the <b>two-step task.</b></p><p>To see the instructions, press the ""1"" key. To skip them, press the ""2"" key.</p>","2","","","","","","","","","","","","","","","","","","","","","","","",""
"","","","","","two-step-instructions","3","49823","0.0-4.0","40791.90000000596","","","[{""page_index"":0,""viewing_time"":37752.29999999702},{""page_index"":1,""viewing_time"":1965.5},{""page_index"":2,""viewing_time"":1073.9000000059605}]","","","","","","","","","","","","","","","","","","","","","","",""
"","","","","","two-step-trial","4","54496","0.0-5.0-0.0","","","","","[0,1]","1","1","1808.2000000029802","1","1","[2,3]","1","3","853.7000000029802","1","[""#48a782"",""#955db9""]","[""#5f6f81"",""#7f5d5d""]","[945,889]","1","1","[0.6,0.51,0.387,0.388]","0","0","false","","",""
"","","","","","two-step-trial","5","57229","0.0-6.0-0.0","","","","","[0,1]","1","1","285.29999999701977","1","1","[2,3]","1","3","437.79999999701977","0","[""#48a782"",""#955db9""]","[""#5f6f81"",""#7f5d5d""]","[945,889]","1","2","[0.6,0.49,0.376,0.364]","0","0","false","","",""
"","","","","","two-step-trial","6","59924","0.0-7.0-0.0","","","","","[0,1]","1","1","315.5","1","1","[2,3]","1","3","371.09999999403954","0","[""#48a782"",""#955db9""]","[""#5f6f81"",""#7f5d5d""]","[945,889]","1","3","[0.612,0.488,0.376,0.385]","0","0","false","","",""
"","","","","","two-step-trial","7","62568","0.0-8.0-0.0","","","","","[0,1]","1","1","355.79999999701977","1","1","[2,3]","0","2","280.5","1","[""#48a782"",""#955db9""]","[""#5f6f81"",""#7f5d5d""]","[945,889]","1","4","[0.659,0.517,0.37,0.352]","0","0","false","","",""
"","","","","","two-step-trial","8","65218","0.0-9.0-0.0","","","","","[0,1]","1","1","274.80000001192093","1","1","[2,3]","0","2","366.5","0","[""#48a782"",""#955db9""]","[""#5f6f81"",""#7f5d5d""]","[945,889]","1","5","[0.676,0.497,0.349,0.378]","0","0","false","","",""
"","","","","","two-step-trial","9","68035","0.0-10.0-0.0","","","","","[0,1]","1","1","314.29999999701977","1","1","[2,3]","0","2","497.6000000089407","1","[""#48a782"",""#955db9""]","[""#5f6f81"",""#7f5d5d""]","[945,889]","1","6","[0.682,0.475,0.347,0.386]","0","0","false","","",""
"","","","","","two-step-trial","10","70668","0.0-11.0-0.0","","","","","[0,1]","1","1","292.29999999701977","1","1","[2,3]","0","2","333.09999999403954","0","[""#48a782"",""#955db9""]","[""#5f6f81"",""#7f5d5d""]","[945,889]","1","7","[0.65,0.473,0.346,0.344]","0","0","false","","",""
"","","","","","two-step-trial","11","73809","0.0-12.0-0.0","","","","","[0,1]","0","0","379.59999999403954","0","1","[2,3]","0","2","755","1","[""#48a782"",""#955db9""]","[""#5f6f81"",""#7f5d5d""]","[945,889]","1","8","[0.637,0.456,0.371,0.318]","0","0","false","","",""
"","","","","","two-step-trial","12","76960","0.0-13.0-0.0","","","","","[0,1]","0","0","292.90000000596046","1","0","[0,1]","0","0","854.2999999970198","0","[""#48a782"",""#955db9""]","[""#5f6f81"",""#7f5d5d""]","[945,889]","1","9","[0.637,0.443,0.354,0.311]","0","0","false","","",""
"","","","","","two-step-trial","13","79551","0.0-14.0-0.0","","","","","[0,1]","0","0","294.09999999403954","1","0","[0,1]","1","1","289.79999999701977","0","[""#48a782"",""#955db9""]","[""#5f6f81"",""#7f5d5d""]","[945,889]","1","10","[0.63,0.435,0.315,0.32]","0","0","false","","",""
"","","","","","two-step-trial","14","82284","0.0-15.0-0.0","","","","","[0,1]","1","1","338.5","0","0","[0,1]","0","0","386","0","[""#48a782"",""#955db9""]","[""#5f6f81"",""#7f5d5d""]","[945,889]","1","11","[0.599,0.48,0.291,0.32]","0","0","false","","",""
"","","","","","two-step-trial","15","85011","0.0-16.0-0.0","","","","","[0,1]","1","1","296","1","1","[2,3]","0","2","421.20000000298023","0","[""#48a782"",""#955db9""]","[""#5f6f81"",""#7f5d5d""]","[945,889]","1","12","[0.573,0.445,0.3,0.33]","0","0","false","","",""
"","","","","","two-step-trial","16","87651","0.0-17.0-0.0","","","","","[0,1]","1","1","307.20000000298023","1","1","[2,3]","1","3","327.79999999701977","0","[""#48a782"",""#955db9""]","[""#5f6f81"",""#7f5d5d""]","[945,889]","1","13","[0.6,0.4,0.3,0.32]","0","0","false","","",""
"","","","","","two-step-trial","17","90585","0.0-18.0-0.0","","","","","[0,1]","0","0","249.3999999910593","1","0","[0,1]","0","0","678.0999999940395","1","[""#48a782"",""#955db9""]","[""#5f6f81"",""#7f5d5d""]","[945,889]","1","14","[0.601,0.428,0.308,0.274]","0","0","false","","",""
"","","","","","two-step-trial","18","93464","0.0-19.0-0.0","","","","","[0,1]","0","0","401.70000000298023","1","0","[0,1]","0","0","471.79999999701977","0","[""#48a782"",""#955db9""]","[""#5f6f81"",""#7f5d5d""]","[945,889]","1","15","[0.588,0.441,0.345,0.295]","0","0","false","","",""
"","","","","","two-step-trial","19","96524","0.0-20.0-0.0","","","","","[0,1]","0","0","311.80000001192093","1","0","[0,1]","1","1","740.7000000029802","1","[""#48a782"",""#955db9""]","[""#5f6f81"",""#7f5d5d""]","[945,889]","1","16","[0.641,0.463,0.39,0.301]","0","0","false","","",""
"","","","","","two-step-trial","20","99146","0.0-21.0-0.0","","","","","[0,1]","0","0","248.5","1","0","[0,1]","1","1","366.69999998807907","1","[""#48a782"",""#955db9""]","[""#5f6f81"",""#7f5d5d""]","[945,889]","1","17","[0.649,0.465,0.413,0.325]","0","0","false","","",""
"","","","","","two-step-trial","21","101839","0.0-22.0-0.0","","","","","[0,1]","0","0","345.40000000596046","1","0","[0,1]","1","1","339.8999999910593","1","[""#48a782"",""#955db9""]","[""#5f6f81"",""#7f5d5d""]","[945,889]","1","18","[0.627,0.478,0.397,0.324]","0","0","false","","",""
"","","","","","two-step-trial","22","104395","0.0-23.0-0.0","","","","","[0,1]","0","0","254.40000000596046","1","0","[0,1]","1","1","293.29999999701977","1","[""#48a782"",""#955db9""]","[""#5f6f81"",""#7f5d5d""]","[945,889]","1","19","[0.656,0.491,0.375,0.348]","0","0","false","","",""
"","","","","","two-step-trial","23","107051","0.0-24.0-0.0","","","","","[0,1]","0","0","276.40000000596046","1","0","[0,1]","1","1","374.59999999403954","0","[""#48a782"",""#955db9""]","[""#5f6f81"",""#7f5d5d""]","[945,889]","1","20","[0.64,0.468,0.396,0.335]","0","0","false","","",""
"","","","","","two-step-trial","24","109577","0.0-25.0-0.0","","","","","[0,1]","0","0","250.8999999910593","1","0","[0,1]","0","0","271.09999999403954","1","[""#48a782"",""#955db9""]","[""#5f6f81"",""#7f5d5d""]","[945,889]","1","21","[0.633,0.467,0.352,0.33]","0","0","false","","",""
"","","","","","two-step-trial","25","112201","0.0-26.0-0.0","","","","","[0,1]","0","0","316.70000000298023","1","0","[0,1]","0","0","299","1","[""#48a782"",""#955db9""]","[""#5f6f81"",""#7f5d5d""]","[945,889]","1","22","[0.591,0.462,0.379,0.373]","0","0","false","","",""
"","","","","","two-step-trial","26","114724","0.0-27.0-0.0","","","","","[0,1]","0","0","242.69999998807907","0","1","[2,3]","0","2","270.40000000596046","0","[""#48a782"",""#955db9""]","[""#5f6f81"",""#7f5d5d""]","[945,889]","1","23","[0.612,0.436,0.44,0.331]","0","0","false","","",""
"","","","","","two-step-trial","27","117449","0.0-28.0-0.0","","","","","[0,1]","0","0","281.5","1","0","[0,1]","0","0","434.40000000596046","1","[""#48a782"",""#955db9""]","[""#5f6f81"",""#7f5d5d""]","[945,889]","1","24","[0.612,0.434,0.473,0.352]","0","0","false","","",""
"","","","","","two-step-trial","28","121201","0.0-29.0-0.0","","","","","[0,1]","0","0","1345","1","0","[0,1]","0","0","398.79999999701977","1","[""#48a782"",""#955db9""]","[""#5f6f81"",""#7f5d5d""]","[945,889]","1","25","[0.568,0.394,0.47,0.342]","0","0","false","","",""
"","","","","","two-step-trial","29","123934","0.0-30.0-0.0","","","","","[0,1]","0","0","347.5","1","0","[0,1]","0","0","380.3999999910593","1","[""#48a782"",""#955db9""]","[""#5f6f81"",""#7f5d5d""]","[945,889]","1","26","[0.601,0.434,0.455,0.342]","0","0","false","","",""
"","","","","","two-step-trial","30","126575","0.0-31.0-0.0","","","","","[0,1]","0","0","231.20000000298023","1","0","[0,1]","0","0","403.70000000298023","1","[""#48a782"",""#955db9""]","[""#5f6f81"",""#7f5d5d""]","[945,889]","1","27","[0.539,0.464,0.435,0.334]","0","0","false","","",""
"","","","","","two-step-trial","31","129534","0.0-32.0-0.0","","","","","[0,1]","0","0","523.1000000089407","1","0","[0,1]","0","0","428.40000000596046","1","[""#48a782"",""#955db9""]","[""#5f6f81"",""#7f5d5d""]","[945,889]","1","28","[0.523,0.476,0.415,0.352]","0","0","false","","",""
"","","","","","two-step-trial","32","132448","0.0-33.0-0.0","","","","","[0,1]","0","0","507.09999999403954","1","0","[0,1]","0","0","399","0","[""#48a782"",""#955db9""]","[""#5f6f81"",""#7f5d5d""]","[945,889]","1","29","[0.515,0.504,0.459,0.339]","0","0","false","","",""
"","","","","","two-step-trial","33","134965","0.0-34.0-0.0","","","","","[0,1]","0","0","238.5","0","1","[2,3]","0","2","271.59999999403954","0","[""#48a782"",""#955db9""]","[""#5f6f81"",""#7f5d5d""]","[945,889]","1","30","[0.491,0.488,0.491,0.323]","0","0","false","","",""
"","","","","","two-step-trial","34","138684","0.0-35.0-0.0","","","","","[0,1]","0","0","1390.5","0","1","[2,3]","1","3","320.70000000298023","1","[""#48a782"",""#955db9""]","[""#5f6f81"",""#7f5d5d""]","[945,889]","1","31","[0.478,0.502,0.474,0.353]","0","0","false","","",""
"","","","","","two-step-trial","35","141251","0.0-36.0-0.0","","","","","[0,1]","0","0","229.79999999701977","1","0","[0,1]","1","1","333","0","[""#48a782"",""#955db9""]","[""#5f6f81"",""#7f5d5d""]","[945,889]","1","32","[0.459,0.453,0.457,0.338]","0","0","false","","",""
"","","","","","two-step-trial","36","143815","0.0-37.0-0.0","","","","","[0,1]","0","0","233.79999999701977","1","0","[0,1]","1","1","323.59999999403954","1","[""#48a782"",""#955db9""]","[""#5f6f81"",""#7f5d5d""]","[945,889]","1","33","[0.435,0.461,0.485,0.304]","0","0","false","","",""
"","","","","","two-step-trial","37","146533","0.0-38.0-0.0","","","","","[0,1]","0","0","181.40000000596046","1","0","[0,1]","1","1","527.9000000059605","0","[""#48a782"",""#955db9""]","[""#5f6f81"",""#7f5d5d""]","[945,889]","1","34","[0.425,0.445,0.448,0.302]","0","0","false","","",""
"","","","","","two-step-trial","38","149110","0.0-39.0-0.0","","","","","[0,1]","0","0","267.09999999403954","1","0","[0,1]","1","1","302.09999999403954","0","[""#48a782"",""#955db9""]","[""#5f6f81"",""#7f5d5d""]","[945,889]","1","35","[0.398,0.417,0.401,0.285]","0","0","false","","",""
"","","","","","two-step-trial","39","151737","0.0-40.0-0.0","","","","","[0,1]","1","1","260.09999999403954","1","1","[2,3]","0","2","360.20000000298023","0","[""#48a782"",""#955db9""]","[""#5f6f81"",""#7f5d5d""]","[945,889]","1","36","[0.438,0.401,0.404,0.302]","0","0","false","","",""
"","","","","","two-step-trial","40","154296","0.0-41.0-0.0","","","","","[0,1]","1","1","267.90000000596046","1","1","[2,3]","1","3","283.40000000596046","1","[""#48a782"",""#955db9""]","[""#5f6f81"",""#7f5d5d""]","[945,889]","1","37","[0.446,0.383,0.396,0.273]","0","0","false","","",""
"","","","","","two-step-trial","41","156827","0.0-42.0-0.0","","","","","[0,1]","1","1","262.09999999403954","1","1","[2,3]","1","3","260.3999999910593","0","[""#48a782"",""#955db9""]","[""#5f6f81"",""#7f5d5d""]","[945,889]","1","38","[0.473,0.425,0.406,0.259]","0","0","false","","",""
"","","","","","two-step-trial","42","159367","0.0-43.0-0.0","","","","","[0,1]","1","1","234.5","0","0","[0,1]","0","0","296.5","0","[""#48a782"",""#955db9""]","[""#5f6f81"",""#7f5d5d""]","[945,889]","1","39","[0.491,0.414,0.381,0.251]","0","0","false","","",""
"","","","","","two-step-trial","43","162290","0.0-44.0-0.0","","","","","[0,1]","1","1","235.09999999403954","1","1","[2,3]","0","2","680.7999999970198","1","[""#48a782"",""#955db9""]","[""#5f6f81"",""#7f5d5d""]","[945,889]","1","40","[0.46,0.404,0.375,0.267]","0","0","false","","",""
"","","","","","two-step-trial","44","164874","0.0-45.0-0.0","","","","","[0,1]","1","1","261.40000000596046","1","1","[2,3]","0","2","318.19999998807907","0","[""#48a782"",""#955db9""]","[""#5f6f81"",""#7f5d5d""]","[945,889]","1","41","[0.47,0.46,0.37,0.279]","0","0","false","","",""
"","","","","","two-step-trial","45","167480","0.0-46.0-0.0","","","","","[0,1]","1","1","258.1000000089407","0","0","[0,1]","0","0","341.8999999910593","1","[""#48a782"",""#955db9""]","[""#5f6f81"",""#7f5d5d""]","[945,889]","1","42","[0.454,0.461,0.369,0.275]","0","0","false","","",""
"","","","","","two-step-trial","46","170964","0.0-47.0-0.0","","","","","[0,1]","0","0","429.1000000089407","0","1","[2,3]","0","2","1045","1","[""#48a782"",""#955db9""]","[""#5f6f81"",""#7f5d5d""]","[945,889]","1","43","[0.452,0.459,0.392,0.293]","0","0","false","","",""
"","","","","","two-step-trial","47","173606","0.0-48.0-0.0","","","","","[0,1]","0","0","145","1","0","[0,1]","0","0","487.79999999701977","1","[""#48a782"",""#955db9""]","[""#5f6f81"",""#7f5d5d""]","[945,889]","1","44","[0.439,0.428,0.412,0.329]","0","0","false","","",""
"","","","","","two-step-trial","48","176260","0.0-49.0-0.0","","","","","[0,1]","0","0","303","1","0","[0,1]","0","0","341.19999998807907","0","[""#48a782"",""#955db9""]","[""#5f6f81"",""#7f5d5d""]","[945,889]","1","45","[0.455,0.384,0.41,0.354]","0","0","false","","",""
"","","","","","two-step-trial","49","179391","0.0-50.0-0.0","","","","","[0,1]","0","0","253.40000000596046","0","1","[2,3]","0","2","868.9000000059605","1","[""#48a782"",""#955db9""]","[""#5f6f81"",""#7f5d5d""]","[945,889]","1","46","[0.471,0.375,0.394,0.336]","0","0","false","","",""
"","","","","","two-step-trial","50","182020","0.0-51.0-0.0","","","","","[0,1]","1","1","317.09999999403954","1","1","[2,3]","0","2","309","0","[""#48a782"",""#955db9""]","[""#5f6f81"",""#7f5d5d""]","[945,889]","1","47","[0.423,0.325,0.351,0.294]","0","0","false","","",""
"","","","","","two-step-trial","51","184733","0.0-52.0-0.0","","","","","[0,1]","1","1","400.40000000596046","1","1","[2,3]","1","3","307.70000000298023","1","[""#48a782"",""#955db9""]","[""#5f6f81"",""#7f5d5d""]","[945,889]","1","48","[0.458,0.334,0.355,0.324]","0","0","false","","",""
"","","","","","two-step-trial","52","187333","0.0-53.0-0.0","","","","","[0,1]","1","1","293.09999999403954","1","1","[2,3]","1","3","297.90000000596046","1","[""#48a782"",""#955db9""]","[""#5f6f81"",""#7f5d5d""]","[945,889]","1","49","[0.502,0.353,0.35,0.322]","0","0","false","","",""
"","","","","","two-step-trial","53","189900","0.0-54.0-0.0","","","","","[0,1]","1","1","257","0","0","[0,1]","1","1","305.5","0","[""#48a782"",""#955db9""]","[""#5f6f81"",""#7f5d5d""]","[945,889]","1","50","[0.464,0.368,0.367,0.351]","0","0","false","","",""
"","","","","","two-step-trial","54","192509","0.0-55.0-0.0","","","","","[0,1]","1","1","280.3999999910593","1","1","[2,3]","1","3","320.90000000596046","1","[""#48a782"",""#955db9""]","[""#5f6f81"",""#7f5d5d""]","[945,889]","1","51","[0.459,0.421,0.341,0.301]","0","0","false","","",""
"","","","","","two-step-trial","55","195180","0.0-56.0-0.0","","","","","[0,1]","1","1","135.20000000298023","1","1","[2,3]","1","3","527.2000000029802","0","[""#48a782"",""#955db9""]","[""#5f6f81"",""#7f5d5d""]","[945,889]","1","52","[0.496,0.401,0.388,0.295]","0","0","false","","",""
"","","","","","two-step-trial","56","197760","0.0-57.0-0.0","","","","","[0,1]","1","1","266.79999999701977","0","0","[0,1]","0","0","308","1","[""#48a782"",""#955db9""]","[""#5f6f81"",""#7f5d5d""]","[945,889]","1","53","[0.476,0.391,0.373,0.273]","0","0","false","","",""
"","","","","","two-step-trial","57","200249","0.0-58.0-0.0","","","","","[0,1]","1","1","190.40000000596046","0","0","[0,1]","0","0","292.70000000298023","0","[""#48a782"",""#955db9""]","[""#5f6f81"",""#7f5d5d""]","[945,889]","1","54","[0.452,0.379,0.383,0.272]","0","0","false","","",""
"","","","","","two-step-trial","58","202991","0.0-59.0-0.0","","","","","[0,1]","1","1","320.90000000596046","1","1","[2,3]","0","2","415.90000000596046","1","[""#48a782"",""#955db9""]","[""#5f6f81"",""#7f5d5d""]","[945,889]","1","55","[0.448,0.393,0.401,0.289]","0","0","false","","",""
"","","","","","two-step-trial","59","205449","0.0-60.0-0.0","","","","","[0,1]","1","1","138.1000000089407","1","1","[2,3]","0","2","315.30000001192093","0","[""#48a782"",""#955db9""]","[""#5f6f81"",""#7f5d5d""]","[945,889]","1","56","[0.435,0.368,0.433,0.291]","0","0","false","","",""
"","","","","","two-step-trial","60","208019","0.0-61.0-0.0","","","","","[0,1]","1","1","270.20000000298023","1","1","[2,3]","1","3","295.70000000298023","1","[""#48a782"",""#955db9""]","[""#5f6f81"",""#7f5d5d""]","[945,889]","1","57","[0.441,0.373,0.443,0.285]","0","0","false","","",""
"","","","","","two-step-trial","61","210641","0.0-62.0-0.0","","","","","[0,1]","1","1","315.20000000298023","1","1","[2,3]","1","3","302.90000000596046","0","[""#48a782"",""#955db9""]","[""#5f6f81"",""#7f5d5d""]","[945,889]","1","58","[0.418,0.389,0.42,0.282]","0","0","false","","",""
"","","","","","two-step-trial","62","213320","0.0-63.0-0.0","","","","","[0,1]","1","1","275.30000001192093","1","1","[2,3]","1","3","397.90000000596046","0","[""#48a782"",""#955db9""]","[""#5f6f81"",""#7f5d5d""]","[945,889]","1","59","[0.41,0.383,0.392,0.255]","0","0","false","","",""
"","","","","","two-step-trial","63","215883","0.0-64.0-0.0","","","","","[0,1]","1","1","245.20000000298023","1","1","[2,3]","0","2","309.90000000596046","0","[""#48a782"",""#955db9""]","[""#5f6f81"",""#7f5d5d""]","[945,889]","1","60","[0.426,0.384,0.354,0.267]","0","0","false","","",""
"","","","","","two-step-trial","64","218783","0.0-65.0-0.0","","","","","[0,1]","1","1","274.30000001192093","1","1","[2,3]","1","3","619.2000000029802","0","[""#48a782"",""#955db9""]","[""#5f6f81"",""#7f5d5d""]","[945,889]","1","61","[0.416,0.414,0.379,0.254]","0","0","false","","",""
"","","","","","two-step-trial","65","221795","0.0-66.0-0.0","","","","","[0,1]","0","0","457.20000000298023","1","0","[0,1]","0","0","549.5","1","[""#48a782"",""#955db9""]","[""#5f6f81"",""#7f5d5d""]","[945,889]","1","62","[0.353,0.414,0.383,0.26]","0","0","false","","",""
"","","","","","two-step-trial","66","224556","0.0-67.0-0.0","","","","","[0,1]","0","0","387.90000000596046","1","0","[0,1]","0","0","370","1","[""#48a782"",""#955db9""]","[""#5f6f81"",""#7f5d5d""]","[945,889]","1","63","[0.293,0.383,0.425,0.266]","0","0","false","","",""
"","","","","","two-step-trial","67","227136","0.0-68.0-0.0","","","","","[0,1]","0","0","250","1","0","[0,1]","0","0","326.79999999701977","0","[""#48a782"",""#955db9""]","[""#5f6f81"",""#7f5d5d""]","[945,889]","1","64","[0.288,0.362,0.432,0.275]","0","0","false","","",""
"","","","","","two-step-trial","68","229629","0.0-69.0-0.0","","","","","[0,1]","0","0","117.29999999701977","1","0","[0,1]","0","0","369","0","[""#48a782"",""#955db9""]","[""#5f6f81"",""#7f5d5d""]","[945,889]","1","65","[0.297,0.363,0.457,0.29]","0","0","false","","",""
"","","","","","two-step-trial","69","232799","0.0-70.0-0.0","","","","","[0,1]","0","0","263.8999999910593","0","1","[2,3]","1","3","898.0999999940395","1","[""#48a782"",""#955db9""]","[""#5f6f81"",""#7f5d5d""]","[945,889]","1","66","[0.25,0.333,0.451,0.284]","0","0","false","","",""
"","","","","","two-step-trial","70","235532","0.0-71.0-0.0","","","","","[0,1]","1","1","398.5","1","1","[2,3]","1","3","332.40000000596046","1","[""#48a782"",""#955db9""]","[""#5f6f81"",""#7f5d5d""]","[945,889]","1","67","[0.255,0.331,0.425,0.278]","0","0","false","","",""
"","","","","","two-step-trial","71","238220","0.0-72.0-0.0","","","","","[0,1]","1","1","267.09999999403954","1","1","[2,3]","1","3","414.8999999910593","0","[""#48a782"",""#955db9""]","[""#5f6f81"",""#7f5d5d""]","[945,889]","1","68","[0.281,0.326,0.434,0.261]","0","0","false","","",""
"","","","","","two-step-trial","72","240977","0.0-73.0-0.0","","","","","[0,1]","1","1","248.8999999910593","1","1","[2,3]","0","2","500.40000000596046","0","[""#48a782"",""#955db9""]","[""#5f6f81"",""#7f5d5d""]","[945,889]","1","69","[0.277,0.319,0.434,0.286]","0","0","false","","",""
"","","","","","two-step-trial","73","243705","0.0-74.0-0.0","","","","","[0,1]","0","0","244.40000000596046","1","0","[0,1]","0","0","475.3999999910593","1","[""#48a782"",""#955db9""]","[""#5f6f81"",""#7f5d5d""]","[945,889]","1","70","[0.318,0.351,0.474,0.272]","0","0","false","","",""
"","","","","","two-step-trial","74","246269","0.0-75.0-0.0","","","","","[0,1]","0","0","228.59999999403954","1","0","[0,1]","0","0","329.70000000298023","1","[""#48a782"",""#955db9""]","[""#5f6f81"",""#7f5d5d""]","[945,889]","1","71","[0.306,0.331,0.46,0.274]","0","0","false","","",""
"","","","","","two-step-trial","75","248876","0.0-76.0-0.0","","","","","[0,1]","0","0","267.79999999701977","1","0","[0,1]","0","0","331.80000001192093","0","[""#48a782"",""#955db9""]","[""#5f6f81"",""#7f5d5d""]","[945,889]","1","72","[0.35,0.329,0.432,0.251]","0","0","false","","",""
"","","","","","two-step-trial","76","251485","0.0-77.0-0.0","","","","","[0,1]","0","0","286.20000000298023","1","0","[0,1]","1","1","316.29999999701977","0","[""#48a782"",""#955db9""]","[""#5f6f81"",""#7f5d5d""]","[945,889]","1","73","[0.352,0.318,0.461,0.257]","0","0","false","","",""
"","","","","","two-step-trial","77","254082","0.0-78.0-0.0","","","","","[0,1]","0","0","290.29999999701977","1","0","[0,1]","0","0","304.5","1","[""#48a782"",""#955db9""]","[""#5f6f81"",""#7f5d5d""]","[945,889]","1","74","[0.374,0.315,0.514,0.262]","0","0","false","","",""
"","","","","","two-step-trial","78","256651","0.0-79.0-0.0","","","","","[0,1]","0","0","234.70000000298023","0","1","[2,3]","0","2","330.20000000298023","0","[""#48a782"",""#955db9""]","[""#5f6f81"",""#7f5d5d""]","[945,889]","1","75","[0.405,0.348,0.504,0.256]","0","0","false","","",""
"","","","","","two-step-instructions","79","262458","0.0-80.0","5805.29999999702","","","[{""page_index"":0,""viewing_time"":4364.399999991059},{""page_index"":1,""viewing_time"":1440.7000000029802}]","","","","","","","","","","","","","","","","","","","","","","",""
"","","","","","two-step-trial","80","266420","0.0-81.0-0.0","","","","","[0,1]","1","1","1387.9000000059605","0","0","[0,1]","1","1","569","0","[""#48a782"",""#955db9""]","[""#5f6f81"",""#7f5d5d""]","[945,889]","1","76","[0.43,0.367,0.513,0.251]","0","0","false","","",""
"","","","","","two-step-trial","81","269074","0.0-82.0-0.0","","","","","[0,1]","1","1","307.30000001192093","1","1","[2,3]","0","2","336.29999999701977","0","[""#48a782"",""#955db9""]","[""#5f6f81"",""#7f5d5d""]","[945,889]","1","77","[0.426,0.365,0.523,0.279]","0","0","false","","",""
"","","","","","two-step-trial","82","271726","0.0-83.0-0.0","","","","","[0,1]","1","1","284.20000000298023","1","1","[2,3]","1","3","358.6000000089407","1","[""#48a782"",""#955db9""]","[""#5f6f81"",""#7f5d5d""]","[945,889]","1","78","[0.411,0.377,0.525,0.29]","0","0","false","","",""
"","","","","","two-step-trial","83","274293","0.0-84.0-0.0","","","","","[0,1]","1","1","246.8999999910593","0","0","[0,1]","1","1","310.5","0","[""#48a782"",""#955db9""]","[""#5f6f81"",""#7f5d5d""]","[945,889]","1","79","[0.413,0.36,0.538,0.31]","0","0","false","","",""
"","","","","","two-step-trial","84","277240","0.0-85.0-0.0","","","","","[0,1]","1","1","284.90000000596046","1","1","[2,3]","1","3","652.4000000059605","1","[""#48a782"",""#955db9""]","[""#5f6f81"",""#7f5d5d""]","[945,889]","1","80","[0.394,0.383,0.524,0.282]","0","0","false","","",""
"","","","","","two-step-trial","85","279970","0.0-86.0-0.0","","","","","[0,1]","1","1","319","1","1","[2,3]","1","3","401.70000000298023","0","[""#48a782"",""#955db9""]","[""#5f6f81"",""#7f5d5d""]","[945,889]","1","81","[0.361,0.391,0.524,0.269]","0","0","false","","",""
"","","","","","two-step-trial","86","282739","0.0-87.0-0.0","","","","","[0,1]","0","0","330.5","1","0","[0,1]","0","0","433.29999999701977","0","[""#48a782"",""#955db9""]","[""#5f6f81"",""#7f5d5d""]","[945,889]","1","82","[0.354,0.377,0.535,0.274]","0","0","false","","",""
"","","","","","two-step-trial","87","285326","0.0-88.0-0.0","","","","","[0,1]","0","0","275.5","0","1","[2,3]","1","3","304.09999999403954","1","[""#48a782"",""#955db9""]","[""#5f6f81"",""#7f5d5d""]","[945,889]","1","83","[0.353,0.363,0.504,0.307]","0","0","false","","",""
"","","","","","two-step-trial","88","287890","0.0-89.0-0.0","","","","","[0,1]","1","1","265.09999999403954","1","1","[2,3]","1","3","289.40000000596046","0","[""#48a782"",""#955db9""]","[""#5f6f81"",""#7f5d5d""]","[945,889]","1","84","[0.361,0.317,0.485,0.273]","0","0","false","","",""
"","","","","","two-step-trial","89","290587","0.0-90.0-0.0","","","","","[0,1]","1","1","321.6000000089407","1","1","[2,3]","1","3","366.09999999403954","1","[""#48a782"",""#955db9""]","[""#5f6f81"",""#7f5d5d""]","[945,889]","1","85","[0.295,0.332,0.47,0.26]","0","0","false","","",""
"","","","","","two-step-trial","90","293148","0.0-91.0-0.0","","","","","[0,1]","1","1","263.69999998807907","1","1","[2,3]","1","3","292.8999999910593","0","[""#48a782"",""#955db9""]","[""#5f6f81"",""#7f5d5d""]","[945,889]","1","86","[0.287,0.344,0.46,0.32]","0","0","false","","",""
"","","","","","two-step-trial","91","295631","0.0-92.0-0.0","","","","","[0,1]","1","1","65.29999999701977","1","1","[2,3]","1","3","412.8999999910593","1","[""#48a782"",""#955db9""]","[""#5f6f81"",""#7f5d5d""]","[945,889]","1","87","[0.278,0.373,0.46,0.351]","0","0","false","","",""
"","","","","","two-step-trial","92","299123","0.0-93.0-0.0","","","","","[0,1]","1","1","356.6000000089407","0","0","[0,1]","1","1","1126.5999999940395","0","[""#48a782"",""#955db9""]","[""#5f6f81"",""#7f5d5d""]","[945,889]","1","88","[0.277,0.355,0.459,0.358]","0","0","false","","",""
"","","","","","two-step-trial","93","301931","0.0-94.0-0.0","","","","","[0,1]","1","1","397.79999999701977","1","1","[2,3]","0","2","403.6000000089407","1","[""#48a782"",""#955db9""]","[""#5f6f81"",""#7f5d5d""]","[945,889]","1","89","[0.264,0.395,0.47,0.338]","0","0","false","","",""
"","","","","","two-step-trial","94","304567","0.0-95.0-0.0","","","","","[0,1]","1","1","299.40000000596046","1","1","[2,3]","0","2","331.5","1","[""#48a782"",""#955db9""]","[""#5f6f81"",""#7f5d5d""]","[945,889]","1","90","[0.258,0.389,0.495,0.348]","0","0","false","","",""
"","","","","","two-step-trial","95","307971","0.0-96.0-0.0","","","","","[0,1]","1","1","308.09999999403954","0","0","[0,1]","1","1","1089.5999999940395","0","[""#48a782"",""#955db9""]","[""#5f6f81"",""#7f5d5d""]","[945,889]","1","91","[0.325,0.363,0.524,0.356]","0","0","false","","",""
"","","","","","two-step-trial","96","310781","0.0-97.0-0.0","","","","","[0,1]","1","1","483.79999999701977","1","1","[2,3]","0","2","320.90000000596046","0","[""#48a782"",""#955db9""]","[""#5f6f81"",""#7f5d5d""]","[945,889]","1","92","[0.29,0.354,0.524,0.361]","0","0","false","","",""
"","","","","","two-step-trial","97","313989","0.0-98.0-0.0","","","","","[0,1]","0","0","801.7000000029802","1","0","[0,1]","1","1","402.40000000596046","0","[""#48a782"",""#955db9""]","[""#5f6f81"",""#7f5d5d""]","[945,889]","1","93","[0.318,0.353,0.542,0.336]","0","0","false","","",""
"","","","","","two-step-trial","98","316640","0.0-99.0-0.0","","","","","[0,1]","0","0","302.40000000596046","1","0","[0,1]","0","0","339.90000000596046","0","[""#48a782"",""#955db9""]","[""#5f6f81"",""#7f5d5d""]","[945,889]","1","94","[0.329,0.367,0.542,0.302]","0","0","false","","",""
"","","","","","two-step-trial","99","319424","0.0-100.0-0.0","","","","","[0,1]","1","1","270.6000000089407","1","1","[2,3]","0","2","506","0","[""#48a782"",""#955db9""]","[""#5f6f81"",""#7f5d5d""]","[945,889]","1","95","[0.348,0.33,0.586,0.265]","0","0","false","","",""
"","","","","","two-step-trial","100","322139","0.0-101.0-0.0","","","","","[0,1]","1","1","318.20000000298023","0","0","[0,1]","1","1","388.59999999403954","0","[""#48a782"",""#955db9""]","[""#5f6f81"",""#7f5d5d""]","[945,889]","1","96","[0.348,0.348,0.591,0.304]","0","0","false","","",""
"","","","","","two-step-trial","101","325148","0.0-102.0-0.0","","","","","[0,1]","1","1","365.3999999910593","1","1","[2,3]","1","3","638.7999999970198","0","[""#48a782"",""#955db9""]","[""#5f6f81"",""#7f5d5d""]","[945,889]","1","97","[0.328,0.258,0.639,0.303]","0","0","false","","",""
"","","","","","two-step-trial","102","327960","0.0-103.0-0.0","","","","","[0,1]","1","1","314.09999999403954","1","1","[2,3]","0","2","490.90000000596046","1","[""#48a782"",""#955db9""]","[""#5f6f81"",""#7f5d5d""]","[945,889]","1","98","[0.381,0.256,0.661,0.29]","0","0","false","","",""
"","","","","","two-step-trial","103","330631","0.0-104.0-0.0","","","","","[0,1]","1","1","362.19999998807907","1","1","[2,3]","0","2","302.20000000298023","0","[""#48a782"",""#955db9""]","[""#5f6f81"",""#7f5d5d""]","[945,889]","1","99","[0.423,0.312,0.659,0.319]","0","0","false","","",""
"","","","","","two-step-trial","104","333314","0.0-105.0-0.0","","","","","[0,1]","1","1","229.20000000298023","1","1","[2,3]","0","2","445.70000000298023","1","[""#48a782"",""#955db9""]","[""#5f6f81"",""#7f5d5d""]","[945,889]","1","100","[0.419,0.326,0.615,0.332]","0","0","false","","",""
"","","","","","two-step-trial","105","336005","0.0-106.0-0.0","","","","","[0,1]","1","1","304","0","0","[0,1]","0","0","378.6000000089407","0","[""#48a782"",""#955db9""]","[""#5f6f81"",""#7f5d5d""]","[945,889]","1","101","[0.406,0.305,0.562,0.356]","0","0","false","","",""
"","","","","","two-step-trial","106","338653","0.0-107.0-0.0","","","","","[0,1]","1","1","238.70000000298023","1","1","[2,3]","0","2","402.6000000089407","0","[""#48a782"",""#955db9""]","[""#5f6f81"",""#7f5d5d""]","[945,889]","1","102","[0.412,0.303,0.532,0.328]","0","0","false","","",""
"","","","","","two-step-trial","107","341297","0.0-108.0-0.0","","","","","[0,1]","1","1","334.80000001192093","1","1","[2,3]","1","3","303.20000000298023","0","[""#48a782"",""#955db9""]","[""#5f6f81"",""#7f5d5d""]","[945,889]","1","103","[0.399,0.326,0.531,0.314]","0","0","false","","",""
"","","","","","two-step-trial","108","343931","0.0-109.0-0.0","","","","","[0,1]","1","1","294.40000000596046","0","0","[0,1]","1","1","332.3999999910593","0","[""#48a782"",""#955db9""]","[""#5f6f81"",""#7f5d5d""]","[945,889]","1","104","[0.398,0.313,0.576,0.303]","0","0","false","","",""
"","","","","","two-step-trial","109","346580","0.0-110.0-0.0","","","","","[0,1]","1","1","320.79999999701977","1","1","[2,3]","1","3","319.90000000596046","1","[""#48a782"",""#955db9""]","[""#5f6f81"",""#7f5d5d""]","[945,889]","1","105","[0.41,0.34,0.593,0.316]","0","0","false","","",""
"","","","","","two-step-trial","110","349114","0.0-111.0-0.0","","","","","[0,1]","1","1","260.29999999701977","1","1","[2,3]","1","3","265.29999999701977","0","[""#48a782"",""#955db9""]","[""#5f6f81"",""#7f5d5d""]","[945,889]","1","106","[0.402,0.333,0.57,0.322]","0","0","false","","",""
"","","","","","two-step-trial","111","351688","0.0-112.0-0.0","","","","","[0,1]","1","1","282.90000000596046","1","1","[2,3]","1","3","287.59999999403954","1","[""#48a782"",""#955db9""]","[""#5f6f81"",""#7f5d5d""]","[945,889]","1","107","[0.408,0.274,0.566,0.316]","0","0","false","","",""
"","","","","","two-step-trial","112","354211","0.0-113.0-0.0","","","","","[0,1]","1","1","285.79999999701977","1","1","[2,3]","1","3","227.09999999403954","1","[""#48a782"",""#955db9""]","[""#5f6f81"",""#7f5d5d""]","[945,889]","1","108","[0.426,0.262,0.552,0.283]","0","0","false","","",""
"","","","","","two-step-trial","113","356690","0.0-114.0-0.0","","","","","[0,1]","1","1","145.09999999403954","1","1","[2,3]","1","3","329.70000000298023","0","[""#48a782"",""#955db9""]","[""#5f6f81"",""#7f5d5d""]","[945,889]","1","109","[0.4,0.265,0.503,0.284]","0","0","false","","",""
"","","","","","two-step-trial","114","359140","0.0-115.0-0.0","","","","","[0,1]","1","1","34.5","1","1","[2,3]","1","3","409.20000000298023","0","[""#48a782"",""#955db9""]","[""#5f6f81"",""#7f5d5d""]","[945,889]","1","110","[0.389,0.286,0.517,0.318]","0","0","false","","",""
"","","","","","two-step-trial","115","361754","0.0-116.0-0.0","","","","","[0,1]","1","1","96.1000000089407","1","1","[2,3]","0","2","509.79999999701977","1","[""#48a782"",""#955db9""]","[""#5f6f81"",""#7f5d5d""]","[945,889]","1","111","[0.389,0.289,0.505,0.348]","0","0","false","","",""
"","","","","","two-step-trial","116","364388","0.0-117.0-0.0","","","","","[0,1]","1","1","307.90000000596046","0","0","[0,1]","0","0","322.5","0","[""#48a782"",""#955db9""]","[""#5f6f81"",""#7f5d5d""]","[945,889]","1","112","[0.387,0.265,0.506,0.329]","0","0","false","","",""
"","","","","","two-step-trial","117","367030","0.0-118.0-0.0","","","","","[0,1]","1","1","353.8999999910593","1","1","[2,3]","0","2","283.29999999701977","1","[""#48a782"",""#955db9""]","[""#5f6f81"",""#7f5d5d""]","[945,889]","1","113","[0.384,0.256,0.524,0.353]","0","0","false","","",""
"","","","","","two-step-trial","118","369714","0.0-119.0-0.0","","","","","[0,1]","1","1","346.20000000298023","1","1","[2,3]","0","2","331.6000000089407","0","[""#48a782"",""#955db9""]","[""#5f6f81"",""#7f5d5d""]","[945,889]","1","114","[0.367,0.273,0.512,0.348]","0","0","false","","",""
"","","","","","two-step-trial","119","372266","0.0-120.0-0.0","","","","","[0,1]","1","1","243.90000000596046","1","1","[2,3]","0","2","301.70000000298023","1","[""#48a782"",""#955db9""]","[""#5f6f81"",""#7f5d5d""]","[945,889]","1","115","[0.323,0.276,0.502,0.358]","0","0","false","","",""
"","","","","","two-step-trial","120","374763","0.0-121.0-0.0","","","","","[0,1]","1","1","283","1","1","[2,3]","0","2","206.29999999701977","0","[""#48a782"",""#955db9""]","[""#5f6f81"",""#7f5d5d""]","[945,889]","1","116","[0.327,0.301,0.482,0.366]","0","0","false","","",""
"","","","","","two-step-trial","121","377559","0.0-122.0-0.0","","","","","[0,1]","1","1","499.30000001192093","1","1","[2,3]","1","3","292.70000000298023","0","[""#48a782"",""#955db9""]","[""#5f6f81"",""#7f5d5d""]","[945,889]","1","117","[0.356,0.324,0.447,0.405]","0","0","false","","",""
"","","","","","two-step-trial","122","380289","0.0-123.0-0.0","","","","","[0,1]","0","0","332.20000000298023","1","0","[0,1]","0","0","390.79999999701977","0","[""#48a782"",""#955db9""]","[""#5f6f81"",""#7f5d5d""]","[945,889]","1","118","[0.346,0.346,0.451,0.456]","0","0","false","","",""
"","","","","","two-step-trial","123","383315","0.0-124.0-0.0","","","","","[0,1]","1","1","367.5","1","1","[2,3]","0","2","652.5999999940395","1","[""#48a782"",""#955db9""]","[""#5f6f81"",""#7f5d5d""]","[945,889]","1","119","[0.307,0.341,0.511,0.496]","0","0","false","","",""
"","","","","","two-step-trial","124","385896","0.0-125.0-0.0","","","","","[0,1]","1","1","276.8999999910593","1","1","[2,3]","0","2","293.29999999701977","1","[""#48a782"",""#955db9""]","[""#5f6f81"",""#7f5d5d""]","[945,889]","1","120","[0.301,0.307,0.523,0.5]","0","0","false","","",""
"","","","","","two-step-trial","125","388675","0.0-126.0-0.0","","","","","[0,1]","1","1","324.29999999701977","0","0","[0,1]","0","0","451.20000000298023","1","[""#48a782"",""#955db9""]","[""#5f6f81"",""#7f5d5d""]","[945,889]","1","121","[0.288,0.297,0.519,0.491]","0","0","false","","",""
"","","","","","two-step-trial","126","391188","0.0-127.0-0.0","","","","","[0,1]","1","1","239.40000000596046","1","1","[2,3]","0","2","268.29999999701977","0","[""#48a782"",""#955db9""]","[""#5f6f81"",""#7f5d5d""]","[945,889]","1","122","[0.275,0.313,0.525,0.507]","0","0","false","","",""
"","","","","","two-step-trial","127","393671","0.0-128.0-0.0","","","","","[0,1]","1","1","238.59999999403954","0","0","[0,1]","0","0","238.09999999403954","0","[""#48a782"",""#955db9""]","[""#5f6f81"",""#7f5d5d""]","[945,889]","1","123","[0.288,0.279,0.473,0.464]","0","0","false","","",""
"","","","","","two-step-trial","128","396171","0.0-129.0-0.0","","","","","[0,1]","1","1","216.5","1","1","[2,3]","0","2","274.8999999910593","1","[""#48a782"",""#955db9""]","[""#5f6f81"",""#7f5d5d""]","[945,889]","1","124","[0.287,0.296,0.496,0.443]","0","0","false","","",""
"","","","","","two-step-trial","129","398730","0.0-130.0-0.0","","","","","[0,1]","1","1","254","1","1","[2,3]","0","2","297.40000000596046","1","[""#48a782"",""#955db9""]","[""#5f6f81"",""#7f5d5d""]","[945,889]","1","125","[0.26,0.276,0.477,0.451]","0","0","false","","",""
"","","","","","two-step-trial","130","401309","0.0-131.0-0.0","","","","","[0,1]","1","1","293.70000000298023","1","1","[2,3]","0","2","278.6000000089407","1","[""#48a782"",""#955db9""]","[""#5f6f81"",""#7f5d5d""]","[945,889]","1","126","[0.283,0.285,0.494,0.477]","0","0","false","","",""
"","","","","","two-step-trial","131","404190","0.0-132.0-0.0","","","","","[0,1]","1","1","534","1","1","[2,3]","0","2","340.20000000298023","0","[""#48a782"",""#955db9""]","[""#5f6f81"",""#7f5d5d""]","[945,889]","1","127","[0.285,0.251,0.493,0.518]","0","0","false","","",""
"","","","","","two-step-trial","132","406599","0.0-133.0-0.0","","","","","[0,1]","1","1","109.5","0","0","[0,1]","0","0","291.70000000298023","0","[""#48a782"",""#955db9""]","[""#5f6f81"",""#7f5d5d""]","[945,889]","1","128","[0.285,0.278,0.495,0.479]","0","0","false","","",""
"","","","","","two-step-trial","133","409185","0.0-134.0-0.0","","","","","[0,1]","1","1","235.5","0","0","[0,1]","0","0","347.20000000298023","0","[""#48a782"",""#955db9""]","[""#5f6f81"",""#7f5d5d""]","[945,889]","1","129","[0.304,0.316,0.486,0.459]","0","0","false","","",""
"","","","","","two-step-trial","134","411796","0.0-135.0-0.0","","","","","[0,1]","1","1","128.29999999701977","1","1","[2,3]","0","2","477.40000000596046","0","[""#48a782"",""#955db9""]","[""#5f6f81"",""#7f5d5d""]","[945,889]","1","130","[0.279,0.291,0.485,0.452]","0","0","false","","",""
"","","","","","two-step-trial","135","414194","0.0-136.0-0.0","","","","","[0,1]","1","1","127.70000000298023","1","1","[2,3]","0","2","263.5","0","[""#48a782"",""#955db9""]","[""#5f6f81"",""#7f5d5d""]","[945,889]","1","131","[0.257,0.293,0.476,0.442]","0","0","false","","",""
"","","","","","two-step-trial","136","416613","0.0-137.0-0.0","","","","","[0,1]","1","1","41.20000000298023","1","1","[2,3]","1","3","370.79999999701977","0","[""#48a782"",""#955db9""]","[""#5f6f81"",""#7f5d5d""]","[945,889]","1","132","[0.267,0.335,0.408,0.456]","0","0","false","","",""
"","","","","","two-step-trial","137","419579","0.0-138.0-0.0","","","","","[0,1]","0","0","406.70000000298023","1","0","[0,1]","1","1","553.6000000089407","1","[""#48a782"",""#955db9""]","[""#5f6f81"",""#7f5d5d""]","[945,889]","1","133","[0.254,0.359,0.444,0.42]","0","0","false","","",""
"","","","","","two-step-trial","138","422072","0.0-139.0-0.0","","","","","[0,1]","0","0","243.3999999910593","1","0","[0,1]","1","1","244.79999999701977","1","[""#48a782"",""#955db9""]","[""#5f6f81"",""#7f5d5d""]","[945,889]","1","134","[0.265,0.371,0.443,0.419]","0","0","false","","",""
"","","","","","two-step-trial","139","424746","0.0-140.0-0.0","","","","","[0,1]","0","0","267.1000000089407","0","1","[2,3]","1","3","400.20000000298023","1","[""#48a782"",""#955db9""]","[""#5f6f81"",""#7f5d5d""]","[945,889]","1","135","[0.272,0.34,0.465,0.386]","0","0","false","","",""
"","","","","","two-step-trial","140","427368","0.0-141.0-0.0","","","","","[0,1]","0","0","302.5","0","1","[2,3]","1","3","312.79999999701977","1","[""#48a782"",""#955db9""]","[""#5f6f81"",""#7f5d5d""]","[945,889]","1","136","[0.291,0.34,0.503,0.372]","0","0","false","","",""
"","","","","","two-step-trial","141","430079","0.0-142.0-0.0","","","","","[0,1]","0","0","280.29999999701977","1","0","[0,1]","1","1","423.5","0","[""#48a782"",""#955db9""]","[""#5f6f81"",""#7f5d5d""]","[945,889]","1","137","[0.25,0.307,0.498,0.357]","0","0","false","","",""
"","","","","","two-step-trial","142","432616","0.0-143.0-0.0","","","","","[0,1]","1","1","248.20000000298023","0","0","[0,1]","1","1","282.79999999701977","0","[""#48a782"",""#955db9""]","[""#5f6f81"",""#7f5d5d""]","[945,889]","1","138","[0.265,0.293,0.462,0.319]","0","0","false","","",""
"","","","","","two-step-trial","143","435396","0.0-144.0-0.0","","","","","[0,1]","1","1","278.70000000298023","1","1","[2,3]","1","3","494.30000001192093","0","[""#48a782"",""#955db9""]","[""#5f6f81"",""#7f5d5d""]","[945,889]","1","139","[0.268,0.317,0.494,0.325]","0","0","false","","",""
"","","","","","two-step-trial","144","438069","0.0-145.0-0.0","","","","","[0,1]","1","1","297.3999999910593","1","1","[2,3]","1","3","369.70000000298023","0","[""#48a782"",""#955db9""]","[""#5f6f81"",""#7f5d5d""]","[945,889]","1","140","[0.276,0.319,0.471,0.343]","0","0","false","","",""
"","","","","","two-step-trial","145","440803","0.0-146.0-0.0","","","","","[0,1]","0","0","274.09999999403954","1","0","[0,1]","1","1","455.70000000298023","0","[""#48a782"",""#955db9""]","[""#5f6f81"",""#7f5d5d""]","[945,889]","1","141","[0.261,0.318,0.465,0.338]","0","0","false","","",""
"","","","","","two-step-trial","146","443429","0.0-147.0-0.0","","","","","[0,1]","0","0","329.80000001192093","0","1","[2,3]","0","2","293","0","[""#48a782"",""#955db9""]","[""#5f6f81"",""#7f5d5d""]","[945,889]","1","142","[0.269,0.269,0.465,0.359]","0","0","false","","",""
"","","","","","two-step-trial","147","446043","0.0-148.0-0.0","","","","","[0,1]","0","0","252","0","1","[2,3]","1","3","356","1","[""#48a782"",""#955db9""]","[""#5f6f81"",""#7f5d5d""]","[945,889]","1","143","[0.288,0.255,0.464,0.364]","0","0","false","","",""
"","","","","","two-step-trial","148","448736","0.0-149.0-0.0","","","","","[0,1]","1","1","341.59999999403954","1","1","[2,3]","1","3","346.69999998807907","0","[""#48a782"",""#955db9""]","[""#5f6f81"",""#7f5d5d""]","[945,889]","1","144","[0.311,0.284,0.439,0.335]","0","0","false","","",""
"","","","","","two-step-trial","149","451336","0.0-150.0-0.0","","","","","[0,1]","1","1","416","0","0","[0,1]","1","1","175.40000000596046","0","[""#48a782"",""#955db9""]","[""#5f6f81"",""#7f5d5d""]","[945,889]","1","145","[0.291,0.284,0.413,0.345]","0","0","false","","",""
"","","","","","two-step-trial","150","453769","0.0-151.0-0.0","","","","","[0,1]","1","1","305.1000000089407","1","1","[2,3]","1","3","121","0","[""#48a782"",""#955db9""]","[""#5f6f81"",""#7f5d5d""]","[945,889]","1","146","[0.289,0.292,0.421,0.344]","0","0","false","","",""
"","","","","","two-step-trial","151","456605","0.0-152.0-0.0","","","","","[0,1]","1","1","468.09999999403954","1","1","[2,3]","1","3","359.20000000298023","0","[""#48a782"",""#955db9""]","[""#5f6f81"",""#7f5d5d""]","[945,889]","1","147","[0.299,0.296,0.457,0.356]","0","0","false","","",""
"","","","","","two-step-trial","152","459292","0.0-153.0-0.0","","","","","[0,1]","0","0","261.79999999701977","0","1","[2,3]","0","2","416","0","[""#48a782"",""#955db9""]","[""#5f6f81"",""#7f5d5d""]","[945,889]","1","148","[0.264,0.313,0.451,0.366]","0","0","false","","",""
"","","","","","two-step-trial","153","461638","0.0-154.0-0.0","","","","","[0,1]","0","0","49.400000005960464","0","1","[2,3]","1","3","288.09999999403954","0","[""#48a782"",""#955db9""]","[""#5f6f81"",""#7f5d5d""]","[945,889]","1","149","[0.272,0.36,0.455,0.385]","0","0","false","","",""
"","","","","","two-step-trial","154","463855","0.0-155.0-0.0","","","","","[0,1]","0","0","150.1000000089407","1","0","[0,1]","0","0","59.6000000089407","1","[""#48a782"",""#955db9""]","[""#5f6f81"",""#7f5d5d""]","[945,889]","1","150","[0.282,0.392,0.477,0.39]","0","0","false","","",""
"","","","","","two-step-instructions","155","469148","0.0-156.0","5291.29999999702","","","[{""page_index"":0,""viewing_time"":5291}]","","","","","","","","","","","","","","","","","","","","","","",""
"","","","","","two-step-comprehension","156","475214","0.0-157.0","6062.5","","","","","","","","","","","","","","","","","","","","","","","","[""green"",""purple""]","0","[{""event"":""fullscreenenter"",""trial"":1,""time"":2606},{""event"":""fullscreenexit"",""trial"":2,""time"":6772}]"
