"success","timeout","failed_images","failed_audio","failed_video","trial_type","trial_index","time_elapsed","internal_node_id","rt","stimulus","response","view_history","responses","num_errors","quiz","phase","state_2_ids","state_2_key","state_2_choice","state_2_rt","outcome","screen_resolution","minimum_resolution","state_1_ids","state_1_key","state_1_choice","state_1_rt","transition","state","rocket_colors","planet_colors","trial","missing","drifts","drift_ix","browser_interactions","interactions"
"true","false","[]","[]","[]","preload","0","151","0.0-0.0","","","","","","","","","","","","","","","","","","","","","","","","","","","","",""
"true","","","","","fullscreen","1","3209","0.0-1.0","","","","","","","","","","","","","","","","","","","","","","","","","","","","",""
"","","","","","html-keyboard-response","2","8222","0.0-2.0","5012.5999999940395","<p>You are starting a demo of the <b>two-step task.</b></p><p>To see the instructions, press the ""1"" key. To skip them, press the ""2"" key.</p>","1","","","","","","","","","","","","","","","","","","","","","","","","","",""
"","","","","","two-step-instructions","3","64877","0.0-3.0-0.0-1.0","56655.59999999404","","","[{""page_index"":0,""viewing_time"":4236.5999999940395},{""page_index"":1,""viewing_time"":3728.9000000059605},{""page_index"":2,""viewing_time"":3481.5999999940395},{""page_index"":3,""viewing_time"":4728.70000000298},{""page_index"":4,""viewing_time"":8567.5},{""page_index"":3,""viewing_time"":278.5},{""page_index"":2,""viewing_time"":1723.9000000059605},{""page_index"":3,""viewing_time"":228.79999999701977},{""page_index"":4,""viewing_time"":1060.8999999910593},{""page_index"":5,""viewing_time"":2688.7000000029802},{""page_index"":6,""viewing_time"":1249.5},{""page_index"":7,""viewing_time"":7024.29999999702},{""page_index"":8,""viewing_time"":4227.20000000298},{""page_index"":9,""viewing_time"":8731.40000000596},{""page_index"":10,""viewing_time"":4697.399999991059}]","","","","","","","","","","","","","","","","","","","","","","","","",""
"","","","","","two-step-comprehension","4","80239","0.0-3.0-0.0-2.0","15361.300000011921","","","","[""left/right arrow keys"",""True"",""True""]","0","1","","","","","","","","","","","","","","","","","","","","","",""
"","","","","","two-step-instructions","5","91506","0.0-3.0-1.0-0.0-0.0","11257.5","","","[{""page_index"":0,""viewing_time"":11257.29999999702}]","","","","instructions_1b","","","","","","","","","","","","","","","","","","","","",""
"","","","","","alien-practice","6","97831","0.0-3.0-1.0-1.0-0.0","","","","","","","","","[0,1]","0","0","4114.70000000298","0","[1440,900]","1","","","","","","","","","","","","","",""
"","","","","","alien-practice","7","102119","0.0-3.0-1.0-2.0-0.0","","","","","","","","","[0,1]","1","1","2078.6000000089407","0","[1440,900]","1","","","","","","","","","","","","","",""
"","","","","","alien-practice","8","105143","0.0-3.0-1.0-3.0-0.0","","","","","","","","","[0,1]","1","1","820.8000000119209","1","[1440,900]","1","","","","","","","","","","","","","",""
"","","","","","alien-practice","9","108888","0.0-3.0-1.0-4.0-0.0","","","","","","","","","[0,1]","1","1","1537.0999999940395","1","[1440,900]","1","","","","","","","","","","","","","",""
"","","","","","alien-practice","10","111928","0.0-3.0-1.0-5.0-0.0","","","","","","","","","[0,1]","1","1","830.5","1","[1440,900]","1","","","","","","","","","","","","","",""
"","","","","","two-step-instructions","11","133965","0.0-3.0-2.0-1.0","22036.79999999702","","","[{""page_index"":0,""viewing_time"":3805.699999988079},{""page_index"":1,""viewing_time"":1381.4000000059605},{""page_index"":2,""viewing_time"":7114.70000000298},{""page_index"":3,""viewing_time"":5906.5},{""page_index"":4,""viewing_time"":3073},{""page_index"":5,""viewing_time"":755.2999999970198}]","","","","","","","","","","","","","","","","","","","","","","","","",""
"","","","","","two-step-comprehension","12","142924","0.0-3.0-2.0-2.0","8957.89999999106","","","","[""left/right arrow keys"",""False"",""True""]","0","2","","","","","","","","","","","","","","","","","","","","","",""
"","","","","","two-step-instructions","13","159095","0.0-3.0-3.0-0.0","16170.5","","","[{""page_index"":0,""viewing_time"":3184},{""page_index"":1,""viewing_time"":3752.7000000029802},{""page_index"":2,""viewing_time"":9233.60000000894}]","","","","","","","","","","","","","","","","","","","","","","","","",""
"","","","","","two-step-trial","14","165839","0.0-3.0-3.0-1.0-0.0","","","","","","","","","[0,1]","1","1","3275.7000000029802","0","[1440,900]","1","[0,1]","1","1","1460.5999999940395","0","0","[""#48a782"",""#955db9""]","[""#5f6f81"",""#7f5d5d""]","0","false","","","",""
"","","","","","two-step-trial","15","171169","0.0-3.0-3.0-1.0-0.1","","","","","","","","","[2,3]","0","2","811.3999999910593","0","[1440,900]","1","[0,1]","0","0","2511.9000000059605","0","1","[""#48a782"",""#955db9""]","[""#5f6f81"",""#7f5d5d""]","0","false","","","",""
"","","","","","two-step-trial","16","175729","0.0-3.0-3.0-1.0-0.2","","","","","","","","","[0,1]","1","1","990.2000000029802","0","[1440,900]","1","[0,1]","1","1","1563.5","0","0","[""#48a782"",""#955db9""]","[""#5f6f81"",""#7f5d5d""]","0","false","","","",""
"","","","","","two-step-trial","17","180357","0.0-3.0-3.0-1.0-0.3","","","","","","","","","[2,3]","1","3","2001","1","[1440,900]","1","[0,1]","1","1","621.1000000089407","1","1","[""#48a782"",""#955db9""]","[""#5f6f81"",""#7f5d5d""]","0","false","","","",""
"","","","","","two-step-trial","18","184501","0.0-3.0-3.0-1.0-0.4","","","","","","","","","[0,1]","1","1","391.79999999701977","1","[1440,900]","1","[0,1]","1","1","1743.4000000059605","0","0","[""#48a782"",""#955db9""]","[""#5f6f81"",""#7f5d5d""]","0","false","","","",""
"","","","","","two-step-trial","19","188971","0.0-3.0-3.0-1.0-0.5","","","","","","","","","[2,3]","1","3","1053.6000000089407","1","[1440,900]","1","[0,1]","1","1","1413.0999999940395","1","1","[""#48a782"",""#955db9""]","[""#5f6f81"",""#7f5d5d""]","0","false","","","",""
"","","","","","two-step-trial","20","192264","0.0-3.0-3.0-1.0-0.6","","","","","","","","","[2,3]","1","3","641.7999999970198","1","[1440,900]","1","[0,1]","1","1","643.7000000029802","1","1","[""#48a782"",""#955db9""]","[""#5f6f81"",""#7f5d5d""]","0","false","","","",""
"","","","","","two-step-trial","21","195216","0.0-3.0-3.0-1.0-0.7","","","","","","","","","[2,3]","1","3","460.20000000298023","1","[1440,900]","1","[0,1]","1","1","483.79999999701977","1","1","[""#48a782"",""#955db9""]","[""#5f6f81"",""#7f5d5d""]","0","false","","","",""
"","","","","","two-step-trial","22","198554","0.0-3.0-3.0-1.0-0.8","","","","","","","","","[2,3]","1","3","868.3999999910593","1","[1440,900]","1","[0,1]","1","1","463.79999999701977","1","1","[""#48a782"",""#955db9""]","[""#5f6f81"",""#7f5d5d""]","0","false","","","",""
"","","","","","two-step-trial","23","202581","0.0-3.0-3.0-1.0-0.9","","","","","","","","","[0,1]","1","1","1496.4000000059605","0","[1440,900]","1","[0,1]","1","1","526.2000000029802","0","0","[""#48a782"",""#955db9""]","[""#5f6f81"",""#7f5d5d""]","0","false","","","",""
"","","","","","two-step-instructions","24","252935","0.0-3.0-4.0-1.0","50355.29999999702","","","[{""page_index"":0,""viewing_time"":3094.2999999970198},{""page_index"":1,""viewing_time"":3230.7999999970198},{""page_index"":2,""viewing_time"":1977.7999999970198},{""page_index"":3,""viewing_time"":3031.2999999970198},{""page_index"":4,""viewing_time"":11163},{""page_index"":5,""viewing_time"":23428.80000001192},{""page_index"":6,""viewing_time"":4429.0999999940395}]","","","","","","","","","","","","","","","","","","","","","","","","",""
"","","","","","two-step-comprehension","25","270216","0.0-3.0-4.0-2.0","17280.70000000298","","","","[""False"",""False"",""True""]","1","3","","","","","","","","","","","","","","","","","","","","","",""
"","","","","","two-step-instructions","26","272512","0.0-3.0-4.1-0.1-0.1","2293.9000000059605","","","[{""page_index"":0,""viewing_time"":2293.7000000029802}]","","","","","","","","","","","","","","","","","","","","","","","","",""
"","","","","","two-step-instructions","27","279060","0.0-3.0-4.1-1.1","6547.20000000298","","","[{""page_index"":0,""viewing_time"":3746.9000000059605},{""page_index"":1,""viewing_time"":855.2999999970198},{""page_index"":2,""viewing_time"":669.8999999910593},{""page_index"":3,""viewing_time"":334.1000000089407},{""page_index"":4,""viewing_time"":579.8999999910593},{""page_index"":5,""viewing_time"":360.80000001192093}]","","","","","","","","","","","","","","","","","","","","","","","","",""
"","","","","","two-step-comprehension","28","284648","0.0-3.0-4.1-2.1","5586.9000000059605","","","","[""False"",""False"",""False""]","2","3","","","","","","","","","","","","","","","","","","","","","",""
"","","","","","two-step-instructions","29","285565","0.0-3.0-4.2-0.2-0.2","914.5","","","[{""page_index"":0,""viewing_time"":914.2999999970198}]","","","","","","","","","","","","","","","","","","","","","","","","",""
"","","","","","two-step-instructions","30","294863","0.0-3.0-4.2-1.2","9298.09999999404","","","[{""page_index"":0,""viewing_time"":819.7000000029802},{""page_index"":1,""viewing_time"":481.70000000298023},{""page_index"":2,""viewing_time"":749.0999999940395},{""page_index"":3,""viewing_time"":6682.9000000059605},{""page_index"":4,""viewing_time"":203.69999998807907},{""page_index"":5,""viewing_time"":360.70000000298023}]","","","","","","","","","","","","","","","","","","","","","","","","",""
"","","","","","two-step-comprehension","31","305671","0.0-3.0-4.2-2.2","10807.09999999404","","","","[""True"",""False"",""False""]","1","3","","","","","","","","","","","","","","","","","","","","","",""
"","","","","","two-step-instructions","32","306926","0.0-3.0-4.3-0.3-0.3","1252.3999999910593","","","[{""page_index"":0,""viewing_time"":1252.2999999970198}]","","","","","","","","","","","","","","","","","","","","","","","","",""
"","","","","","two-step-instructions","33","309124","0.0-3.0-4.3-1.3","2197.5","","","[{""page_index"":0,""viewing_time"":320.29999999701977},{""page_index"":1,""viewing_time"":299.90000000596046},{""page_index"":2,""viewing_time"":397},{""page_index"":3,""viewing_time"":522},{""page_index"":4,""viewing_time"":284.20000000298023},{""page_index"":5,""viewing_time"":373.8999999910593}]","","","","","","","","","","","","","","","","","","","","","","","","",""
"","","","","","two-step-comprehension","34","317189","0.0-3.0-4.3-2.3","8064.20000000298","","","","[""True"",""False"",""True""]","0","3","","","","","","","","","","","","","","","","","","","","","",""
"","","","","","two-step-instructions","35","326565","0.0-4.0","9374.79999999702","","","[{""page_index"":0,""viewing_time"":811.7000000029802},{""page_index"":1,""viewing_time"":4217.29999999702},{""page_index"":2,""viewing_time"":4345.5999999940395}]","","","","","","","","","","","","","","","","","","","","","","","","",""
"","","","","","two-step-trial","36","333218","0.0-5.0-0.0","","","","","","","","","[0,1]","0","0","2327.5999999940395","0","[1440,900]","1","[0,1]","1","1","2317.800000011921","0","0","[""#486ea7"",""#a75248""]","[""#5b7c65"",""#706081""]","1","false","[0.305,0.438,0.598,0.713]","3","0",""
"","","","","","two-step-trial","37","336608","0.0-6.0-0.0","","","","","","","","","[2,3]","1","3","782.3999999910593","1","[1440,900]","1","[0,1]","1","1","598","1","1","[""#486ea7"",""#a75248""]","[""#5b7c65"",""#706081""]","2","false","[0.326,0.396,0.598,0.702]","3","0",""
"","","","","","two-step-trial","38","340314","0.0-7.0-0.0","","","","","","","","","[2,3]","1","3","645.8999999910593","1","[1440,900]","1","[0,1]","1","1","1053.8999999910593","1","1","[""#486ea7"",""#a75248""]","[""#5b7c65"",""#706081""]","3","false","[0.302,0.426,0.576,0.736]","3","0",""
"","","","","","two-step-trial","39","344477","0.0-8.0-0.0","","","","","","","","","[0,1]","1","1","1498.5","0","[1440,900]","1","[0,1]","1","1","658.7000000029802","0","0","[""#486ea7"",""#a75248""]","[""#5b7c65"",""#706081""]","4","false","[0.362,0.43,0.582,0.702]","3","0",""
"","","","","","two-step-trial","40","347801","0.0-9.0-0.0","","","","","","","","","[2,3]","1","3","603.7000000029802","1","[1440,900]","1","[0,1]","1","1","714","1","1","[""#486ea7"",""#a75248""]","[""#5b7c65"",""#706081""]","5","false","[0.368,0.485,0.615,0.711]","3","0",""
"","","","","","two-step-trial","41","352847","0.0-10.0-0.0","","","","","","","","","[0,1]","1","1","1395.1000000089407","1","[1440,900]","1","[0,1]","1","1","1642.300000011921","0","0","[""#486ea7"",""#a75248""]","[""#5b7c65"",""#706081""]","6","false","[0.404,0.486,0.616,0.744]","3","0",""
"","","","","","two-step-trial","42","355938","0.0-11.0-0.0","","","","","","","","","[2,3]","1","3","410.5","1","[1440,900]","1","[0,1]","1","1","675.8999999910593","1","1","[""#486ea7"",""#a75248""]","[""#5b7c65"",""#706081""]","7","false","[0.387,0.453,0.558,0.725]","3","0",""
"","","","","","two-step-trial","43","359002","0.0-12.0-0.0","","","","","","","","","[0,1]","1","1","498.6000000089407","0","[1440,900]","1","[0,1]","1","1","557.2999999970198","0","0","[""#486ea7"",""#a75248""]","[""#5b7c65"",""#706081""]","8","false","[0.438,0.474,0.539,0.737]","3","0",""
"","","","","","two-step-trial","44","361931","0.0-13.0-0.0","","","","","","","","","[2,3]","1","3","425","0","[1440,900]","1","[0,1]","1","1","494.40000000596046","1","1","[""#486ea7"",""#a75248""]","[""#5b7c65"",""#706081""]","9","false","[0.459,0.489,0.53,0.714]","3","0",""
"","","","","","two-step-trial","45","364780","0.0-14.0-0.0","","","","","","","","","[2,3]","1","3","420.8999999910593","1","[1440,900]","1","[0,1]","1","1","422.70000000298023","1","1","[""#486ea7"",""#a75248""]","[""#5b7c65"",""#706081""]","10","false","[0.45,0.506,0.534,0.707]","3","0",""
"","","","","","two-step-trial","46","368930","0.0-15.0-0.0","","","","","","","","","[2,3]","1","3","672.6000000089407","1","[1440,900]","1","[0,1]","0","0","1471.9000000059605","0","1","[""#486ea7"",""#a75248""]","[""#5b7c65"",""#706081""]","11","false","[0.425,0.476,0.477,0.71]","3","0",""
"","","","","","two-step-trial","47","374473","0.0-16.0-0.0","","","","","","","","","[0,1]","1","1","2870.2999999970198","0","[1440,900]","1","[0,1]","0","0","670.4000000059605","1","0","[""#486ea7"",""#a75248""]","[""#5b7c65"",""#706081""]","12","false","[0.397,0.483,0.492,0.681]","3","0",""
"","","","","","two-step-trial","48","377297","0.0-17.0-0.0","","","","","","","","","[2,3]","1","3","329.30000001192093","1","[1440,900]","1","[0,1]","1","1","488.1000000089407","1","1","[""#486ea7"",""#a75248""]","[""#5b7c65"",""#706081""]","13","false","[0.407,0.496,0.476,0.697]","3","0",""
"","","","","","two-step-trial","49","381398","0.0-18.0-0.0","","","","","","","","","[0,1]","0","0","1312.2000000029802","0","[1440,900]","1","[0,1]","1","1","781.1000000089407","0","0","[""#486ea7"",""#a75248""]","[""#5b7c65"",""#706081""]","14","false","[0.369,0.494,0.493,0.747]","3","0",""
"","","","","","two-step-trial","50","385109","0.0-19.0-0.0","","","","","","","","","[0,1]","0","0","1339.4000000059605","0","[1440,900]","1","[0,1]","1","1","369.40000000596046","0","0","[""#486ea7"",""#a75248""]","[""#5b7c65"",""#706081""]","15","false","[0.342,0.537,0.465,0.735]","3","0",""
"","","","","","two-step-trial","51","388118","0.0-20.0-0.0","","","","","","","","","[0,1]","1","1","628.3999999910593","1","[1440,900]","1","[0,1]","1","1","372.1000000089407","0","0","[""#486ea7"",""#a75248""]","[""#5b7c65"",""#706081""]","16","false","[0.313,0.512,0.467,0.743]","3","0",""
"","","","","","two-step-trial","52","391089","0.0-21.0-0.0","","","","","","","","","[0,1]","1","1","588.6000000089407","1","[1440,900]","1","[0,1]","1","1","377.5","0","0","[""#486ea7"",""#a75248""]","[""#5b7c65"",""#706081""]","17","false","[0.313,0.504,0.486,0.73]","3","0",""
"","","","","","two-step-trial","53","393821","0.0-22.0-0.0","","","","","","","","","[0,1]","1","1","440.79999999701977","0","[1440,900]","1","[0,1]","1","1","283","0","0","[""#486ea7"",""#a75248""]","[""#5b7c65"",""#706081""]","18","false","[0.334,0.526,0.501,0.707]","3","0",""
"","","","","","two-step-trial","54","396645","0.0-23.0-0.0","","","","","","","","","[2,3]","1","3","512.7999999970198","1","[1440,900]","1","[0,1]","1","1","303","1","1","[""#486ea7"",""#a75248""]","[""#5b7c65"",""#706081""]","19","false","[0.312,0.543,0.473,0.695]","3","0",""
"","","","","","two-step-trial","55","400129","0.0-24.0-0.0","","","","","","","","","[2,3]","1","3","536.7000000029802","0","[1440,900]","1","[0,1]","1","1","943","1","1","[""#486ea7"",""#a75248""]","[""#5b7c65"",""#706081""]","20","false","[0.304,0.536,0.482,0.668]","3","0",""
"","","","","","two-step-trial","56","402874","0.0-25.0-0.0","","","","","","","","","[2,3]","1","3","460.70000000298023","0","[1440,900]","1","[0,1]","1","1","276.79999999701977","1","1","[""#486ea7"",""#a75248""]","[""#5b7c65"",""#706081""]","21","false","[0.309,0.543,0.477,0.682]","3","0",""
"","","","","","two-step-trial","57","405679","0.0-26.0-0.0","","","","","","","","","[2,3]","1","3","493.20000000298023","0","[1440,900]","1","[0,1]","1","1","308.30000001192093","1","1","[""#486ea7"",""#a75248""]","[""#5b7c65"",""#706081""]","22","false","[0.301,0.563,0.45,0.702]","3","0",""
"","","","","","two-step-trial","58","409416","0.0-27.0-0.0","","","","","","","","","[0,1]","0","0","1412.9000000059605","1","[1440,900]","1","[0,1]","1","1","315.90000000596046","0","0","[""#486ea7"",""#a75248""]","[""#5b7c65"",""#706081""]","23","false","[0.322,0.569,0.42,0.742]","3","0",""
"","","","","","two-step-trial","59","412390","0.0-28.0-0.0","","","","","","","","","[0,1]","0","0","651.0999999940395","1","[1440,900]","1","[0,1]","1","1","320.20000000298023","0","0","[""#486ea7"",""#a75248""]","[""#5b7c65"",""#706081""]","24","false","[0.298,0.566,0.43,0.74]","3","0",""
"","","","","","two-step-trial","60","415059","0.0-29.0-0.0","","","","","","","","","[0,1]","0","0","360.20000000298023","0","[1440,900]","1","[0,1]","1","1","300.5","0","0","[""#486ea7"",""#a75248""]","[""#5b7c65"",""#706081""]","25","false","[0.293,0.552,0.394,0.669]","3","0",""
"","","","","","two-step-trial","61","417846","0.0-30.0-0.0","","","","","","","","","[2,3]","1","3","463.09999999403954","1","[1440,900]","1","[0,1]","1","1","318.29999999701977","1","1","[""#486ea7"",""#a75248""]","[""#5b7c65"",""#706081""]","26","false","[0.285,0.566,0.393,0.625]","3","0",""
"","","","","","two-step-trial","62","420563","0.0-31.0-0.0","","","","","","","","","[2,3]","1","3","413.6000000089407","0","[1440,900]","1","[0,1]","1","1","299.5","1","1","[""#486ea7"",""#a75248""]","[""#5b7c65"",""#706081""]","27","false","[0.303,0.511,0.422,0.685]","3","0",""
"","","","","","two-step-trial","63","423422","0.0-32.0-0.0","","","","","","","","","[0,1]","0","0","552.6000000089407","0","[1440,900]","1","[0,1]","1","1","303.70000000298023","0","0","[""#486ea7"",""#a75248""]","[""#5b7c65"",""#706081""]","28","false","[0.301,0.517,0.418,0.733]","3","0",""
"","","","","","two-step-trial","64","426069","0.0-33.0-0.0","","","","","","","","","[2,3]","1","3","377.59999999403954","1","[1440,900]","1","[0,1]","1","1","262.90000000596046","1","1","[""#486ea7"",""#a75248""]","[""#5b7c65"",""#706081""]","29","false","[0.345,0.508,0.373,0.733]","3","0",""
"","","","","","two-step-trial","65","428780","0.0-34.0-0.0","","","","","","","","","[2,3]","1","3","415.90000000596046","1","[1440,900]","1","[0,1]","1","1","287","1","1","[""#486ea7"",""#a75248""]","[""#5b7c65"",""#706081""]","30","false","[0.33,0.509,0.425,0.737]","3","0",""
"","","","","","two-step-trial","66","431515","0.0-35.0-0.0","","","","","","","","","[2,3]","1","3","428.70000000298023","1","[1440,900]","1","[0,1]","1","1","299.80000001192093","1","1","[""#486ea7"",""#a75248""]","[""#5b7c65"",""#706081""]","31","false","[0.33,0.475,0.428,0.706]","3","0",""
"","","","","","two-step-trial","67","434239","0.0-36.0-0.0","","","","","","","","","[2,3]","1","3","422.90000000596046","0","[1440,900]","1","[0,1]","1","1","298.09999999403954","1","1","[""#486ea7"",""#a75248""]","[""#5b7c65"",""#706081""]","32","false","[0.332,0.492,0.442,0.701]","3","0",""
"","","","","","two-step-trial","68","436910","0.0-37.0-0.0","","","","","","","","","[0,1]","0","0","391.29999999701977","1","[1440,900]","1","[0,1]","1","1","271.09999999403954","0","0","[""#486ea7"",""#a75248""]","[""#5b7c65"",""#706081""]","33","false","[0.306,0.461,0.388,0.724]","3","0",""
"","","","","","two-step-trial","69","439574","0.0-38.0-0.0","","","","","","","","","[2,3]","1","3","429.29999999701977","1","[1440,900]","1","[0,1]","1","1","228.1000000089407","1","1","[""#486ea7"",""#a75248""]","[""#5b7c65"",""#706081""]","34","false","[0.335,0.445,0.418,0.721]","3","0",""
"","","","","","two-step-trial","70","443583","0.0-39.0-0.0","","","","","","","","","[2,3]","1","3","661.2999999970198","0","[1440,900]","1","[0,1]","0","0","1344.3999999910593","0","1","[""#486ea7"",""#a75248""]","[""#5b7c65"",""#706081""]","35","false","[0.342,0.479,0.439,0.713]","3","0",""
"","","","","","two-step-trial","71","446712","0.0-40.0-0.0","","","","","","","","","[0,1]","0","0","849.7000000029802","0","[1440,900]","1","[0,1]","1","1","274.59999999403954","0","0","[""#486ea7"",""#a75248""]","[""#5b7c65"",""#706081""]","36","false","[0.323,0.462,0.51,0.711]","3","0",""
"","","","","","two-step-trial","72","449383","0.0-41.0-0.0","","","","","","","","","[2,3]","1","3","385.5","0","[1440,900]","1","[0,1]","1","1","277.20000000298023","1","1","[""#486ea7"",""#a75248""]","[""#5b7c65"",""#706081""]","37","false","[0.323,0.441,0.493,0.674]","3","0",""
"","","","","","two-step-trial","73","452069","0.0-42.0-0.0","","","","","","","","","[2,3]","0","2","356","0","[1440,900]","1","[0,1]","1","1","323.20000000298023","1","1","[""#486ea7"",""#a75248""]","[""#5b7c65"",""#706081""]","38","false","[0.361,0.419,0.482,0.648]","3","0",""
"","","","","","two-step-trial","74","454654","0.0-43.0-0.0","","","","","","","","","[0,1]","1","1","315.20000000298023","1","[1440,900]","1","[0,1]","1","1","265.59999999403954","0","0","[""#486ea7"",""#a75248""]","[""#5b7c65"",""#706081""]","39","false","[0.386,0.389,0.441,0.619]","3","0",""
"","","","","","two-step-trial","75","457503","0.0-44.0-0.0","","","","","","","","","[0,1]","0","0","567.2000000029802","1","[1440,900]","1","[0,1]","1","1","278.19999998807907","0","0","[""#486ea7"",""#a75248""]","[""#5b7c65"",""#706081""]","40","false","[0.384,0.374,0.431,0.605]","3","0",""
"","","","","","two-step-trial","76","460147","0.0-45.0-0.0","","","","","","","","","[2,3]","1","3","388.79999999701977","0","[1440,900]","1","[0,1]","1","1","251.40000000596046","1","1","[""#486ea7"",""#a75248""]","[""#5b7c65"",""#706081""]","41","false","[0.382,0.413,0.442,0.617]","3","0",""
"","","","","","two-step-trial","77","462813","0.0-46.0-0.0","","","","","","","","","[2,3]","0","2","382.09999999403954","1","[1440,900]","1","[0,1]","1","1","274.30000001192093","1","1","[""#486ea7"",""#a75248""]","[""#5b7c65"",""#706081""]","42","false","[0.398,0.39,0.424,0.641]","3","0",""
"","","","","","two-step-trial","78","465564","0.0-47.0-0.0","","","","","","","","","[2,3]","0","2","469.09999999403954","0","[1440,900]","1","[0,1]","1","1","278.20000000298023","1","1","[""#486ea7"",""#a75248""]","[""#5b7c65"",""#706081""]","43","false","[0.37,0.404,0.412,0.63]","3","0",""
"","","","","","two-step-trial","79","468182","0.0-48.0-0.0","","","","","","","","","[2,3]","1","3","368.20000000298023","1","[1440,900]","1","[0,1]","1","1","246.20000000298023","1","1","[""#486ea7"",""#a75248""]","[""#5b7c65"",""#706081""]","44","false","[0.417,0.444,0.403,0.613]","3","0",""
"","","","","","two-step-trial","80","470937","0.0-49.0-0.0","","","","","","","","","[2,3]","1","3","492.30000001192093","1","[1440,900]","1","[0,1]","1","1","260.1000000089407","1","1","[""#486ea7"",""#a75248""]","[""#5b7c65"",""#706081""]","45","false","[0.439,0.427,0.37,0.612]","3","0",""
"","","","","","two-step-trial","81","473692","0.0-50.0-0.0","","","","","","","","","[2,3]","1","3","451.79999999701977","0","[1440,900]","1","[0,1]","1","1","296.59999999403954","1","1","[""#486ea7"",""#a75248""]","[""#5b7c65"",""#706081""]","46","false","[0.459,0.416,0.369,0.621]","3","0",""
"","","","","","two-step-trial","82","476356","0.0-51.0-0.0","","","","","","","","","[2,3]","0","2","427.90000000596046","1","[1440,900]","1","[0,1]","1","1","228","1","1","[""#486ea7"",""#a75248""]","[""#5b7c65"",""#706081""]","47","false","[0.475,0.425,0.384,0.6]","3","0",""
"","","","","","two-step-trial","83","479688","0.0-52.0-0.0","","","","","","","","","[2,3]","1","3","1083.0999999940395","0","[1440,900]","1","[0,1]","1","1","244.5","1","1","[""#486ea7"",""#a75248""]","[""#5b7c65"",""#706081""]","48","false","[0.438,0.4,0.412,0.606]","3","0",""
"","","","","","two-step-trial","84","482258","0.0-53.0-0.0","","","","","","","","","[2,3]","0","2","316.09999999403954","0","[1440,900]","1","[0,1]","1","1","249.90000000596046","1","1","[""#486ea7"",""#a75248""]","[""#5b7c65"",""#706081""]","49","false","[0.47,0.408,0.421,0.598]","3","0",""
"","","","","","two-step-trial","85","484829","0.0-54.0-0.0","","","","","","","","","[2,3]","1","3","296.8999999910593","1","[1440,900]","1","[0,1]","1","1","268.5","1","1","[""#486ea7"",""#a75248""]","[""#5b7c65"",""#706081""]","50","false","[0.41,0.42,0.42,0.6]","3","0",""
"","","","","","two-step-trial","86","488096","0.0-55.0-0.0","","","","","","","","","[2,3]","1","3","633.7000000029802","0","[1440,900]","1","[0,1]","0","0","626.8000000119209","0","1","[""#486ea7"",""#a75248""]","[""#5b7c65"",""#706081""]","51","false","[0.412,0.415,0.461,0.564]","3","0",""
"","","","","","two-step-trial","87","490818","0.0-56.0-0.0","","","","","","","","","[2,3]","1","3","460.80000001192093","0","[1440,900]","1","[0,1]","1","1","256.30000001192093","1","1","[""#486ea7"",""#a75248""]","[""#5b7c65"",""#706081""]","52","false","[0.424,0.4,0.482,0.568]","3","0",""
"","","","","","two-step-trial","88","493571","0.0-57.0-0.0","","","","","","","","","[2,3]","0","2","448.79999999701977","1","[1440,900]","1","[0,1]","1","1","297.59999999403954","1","1","[""#486ea7"",""#a75248""]","[""#5b7c65"",""#706081""]","53","false","[0.449,0.35,0.448,0.582]","3","0",""
"","","","","","two-step-trial","89","496725","0.0-58.0-0.0","","","","","","","","","[0,1]","0","0","656.2000000029802","0","[1440,900]","1","[0,1]","1","1","491.19999998807907","0","0","[""#486ea7"",""#a75248""]","[""#5b7c65"",""#706081""]","54","false","[0.409,0.381,0.436,0.573]","3","0",""
"","","","","","two-step-trial","90","499848","0.0-59.0-0.0","","","","","","","","","[2,3]","0","2","826.1000000089407","1","[1440,900]","1","[0,1]","1","1","291.79999999701977","1","1","[""#486ea7"",""#a75248""]","[""#5b7c65"",""#706081""]","55","false","[0.408,0.407,0.428,0.609]","3","0",""
"","","","","","two-step-trial","91","503449","0.0-60.0-0.0","","","","","","","","","[0,1]","1","1","1301.2000000029802","1","[1440,900]","1","[0,1]","1","1","295.29999999701977","0","0","[""#486ea7"",""#a75248""]","[""#5b7c65"",""#706081""]","56","false","[0.417,0.354,0.381,0.598]","3","0",""
"","","","","","two-step-trial","92","506368","0.0-61.0-0.0","","","","","","","","","[2,3]","1","3","615.0999999940395","0","[1440,900]","1","[0,1]","1","1","297.1000000089407","1","1","[""#486ea7"",""#a75248""]","[""#5b7c65"",""#706081""]","57","false","[0.462,0.35,0.396,0.55]","3","0",""
"","","","","","two-step-trial","93","509004","0.0-62.0-0.0","","","","","","","","","[2,3]","0","2","359.20000000298023","1","[1440,900]","1","[0,1]","1","1","272.29999999701977","1","1","[""#486ea7"",""#a75248""]","[""#5b7c65"",""#706081""]","58","false","[0.474,0.332,0.382,0.55]","3","0",""
"","","","","","two-step-trial","94","512048","0.0-63.0-0.0","","","","","","","","","[0,1]","0","0","743.7999999970198","0","[1440,900]","1","[0,1]","1","1","295.59999999403954","0","0","[""#486ea7"",""#a75248""]","[""#5b7c65"",""#706081""]","59","false","[0.462,0.326,0.376,0.559]","3","0",""
"","","","","","two-step-trial","95","514610","0.0-64.0-0.0","","","","","","","","","[2,3]","1","3","322.70000000298023","0","[1440,900]","1","[0,1]","1","1","233.5","1","1","[""#486ea7"",""#a75248""]","[""#5b7c65"",""#706081""]","60","false","[0.432,0.348,0.372,0.56]","3","0",""
"","","","","","two-step-trial","96","517291","0.0-65.0-0.0","","","","","","","","","[0,1]","0","0","412.40000000596046","1","[1440,900]","1","[0,1]","1","1","263.29999999701977","0","0","[""#486ea7"",""#a75248""]","[""#5b7c65"",""#706081""]","61","false","[0.43,0.371,0.389,0.587]","3","0",""
"","","","","","two-step-trial","97","520099","0.0-66.0-0.0","","","","","","","","","[0,1]","0","0","514.2000000029802","1","[1440,900]","1","[0,1]","1","1","291.59999999403954","0","0","[""#486ea7"",""#a75248""]","[""#5b7c65"",""#706081""]","62","false","[0.426,0.371,0.382,0.585]","3","0",""
"","","","","","two-step-trial","98","522707","0.0-67.0-0.0","","","","","","","","","[0,1]","0","0","353.79999999701977","0","[1440,900]","1","[0,1]","1","1","249.90000000596046","0","0","[""#486ea7"",""#a75248""]","[""#5b7c65"",""#706081""]","63","false","[0.431,0.358,0.396,0.59]","3","0",""
"","","","","","two-step-trial","99","525372","0.0-68.0-0.0","","","","","","","","","[0,1]","0","0","408","0","[1440,900]","1","[0,1]","1","1","251.30000001192093","0","0","[""#486ea7"",""#a75248""]","[""#5b7c65"",""#706081""]","64","false","[0.392,0.299,0.415,0.581]","3","0",""
"","","","","","two-step-trial","100","527885","0.0-69.0-0.0","","","","","","","","","[2,3]","0","2","288.59999999403954","0","[1440,900]","1","[0,1]","1","1","216.1000000089407","1","1","[""#486ea7"",""#a75248""]","[""#5b7c65"",""#706081""]","65","false","[0.371,0.329,0.405,0.589]","3","0",""
"","","","","","two-step-trial","101","530513","0.0-70.0-0.0","","","","","","","","","[2,3]","1","3","366","1","[1440,900]","1","[0,1]","1","1","253.40000000596046","1","1","[""#486ea7"",""#a75248""]","[""#5b7c65"",""#706081""]","66","false","[0.354,0.287,0.413,0.591]","3","0",""
"","","","","","two-step-trial","102","533366","0.0-71.0-0.0","","","","","","","","","[2,3]","1","3","587.6000000089407","0","[1440,900]","1","[0,1]","1","1","256.29999999701977","1","1","[""#486ea7"",""#a75248""]","[""#5b7c65"",""#706081""]","67","false","[0.398,0.254,0.426,0.603]","3","0",""
"","","","","","two-step-trial","103","536180","0.0-72.0-0.0","","","","","","","","","[2,3]","1","3","527.9000000059605","1","[1440,900]","1","[0,1]","1","1","279.70000000298023","1","1","[""#486ea7"",""#a75248""]","[""#5b7c65"",""#706081""]","68","false","[0.425,0.254,0.441,0.582]","3","0",""
"","","","","","two-step-trial","104","538726","0.0-73.0-0.0","","","","","","","","","[2,3]","1","3","276.5","1","[1440,900]","1","[0,1]","1","1","263.70000000298023","1","1","[""#486ea7"",""#a75248""]","[""#5b7c65"",""#706081""]","69","false","[0.474,0.287,0.392,0.531]","3","0",""
"","","","","","two-step-trial","105","541346","0.0-74.0-0.0","","","","","","","","","[2,3]","1","3","372","1","[1440,900]","1","[0,1]","1","1","240.40000000596046","1","1","[""#486ea7"",""#a75248""]","[""#5b7c65"",""#706081""]","70","false","[0.51,0.279,0.378,0.487]","3","0",""
"","","","","","two-step-trial","106","543923","0.0-75.0-0.0","","","","","","","","","[2,3]","1","3","341.79999999701977","0","[1440,900]","1","[0,1]","1","1","230.79999999701977","1","1","[""#486ea7"",""#a75248""]","[""#5b7c65"",""#706081""]","71","false","[0.506,0.269,0.381,0.477]","3","0",""
"","","","","","two-step-trial","107","546414","0.0-76.0-0.0","","","","","","","","","[2,3]","1","3","267.70000000298023","1","[1440,900]","1","[0,1]","1","1","220.70000000298023","1","1","[""#486ea7"",""#a75248""]","[""#5b7c65"",""#706081""]","72","false","[0.541,0.263,0.39,0.466]","3","0",""
"","","","","","two-step-trial","108","548958","0.0-77.0-0.0","","","","","","","","","[2,3]","1","3","291.29999999701977","0","[1440,900]","1","[0,1]","1","1","246.5","1","1","[""#486ea7"",""#a75248""]","[""#5b7c65"",""#706081""]","73","false","[0.49,0.271,0.373,0.466]","3","0",""
"","","","","","two-step-trial","109","551513","0.0-78.0-0.0","","","","","","","","","[0,1]","0","0","332.20000000298023","0","[1440,900]","1","[0,1]","1","1","219.5","0","0","[""#486ea7"",""#a75248""]","[""#5b7c65"",""#706081""]","74","false","[0.512,0.277,0.41,0.457]","3","0",""
"","","","","","two-step-trial","110","553932","0.0-79.0-0.0","","","","","","","","","[2,3]","1","3","237.29999999701977","1","[1440,900]","1","[0,1]","1","1","176.20000000298023","1","1","[""#486ea7"",""#a75248""]","[""#5b7c65"",""#706081""]","75","false","[0.537,0.271,0.42,0.478]","3","0",""
"","","","","","two-step-instructions","111","556961","0.0-80.0","3027.7000000029802","","","[{""page_index"":0,""viewing_time"":1946.2000000029802},{""page_index"":1,""viewing_time"":1081.2999999970198}]","","","","","","","","","","","","","","","","","","","","","","","","",""
"","","","","","two-step-trial","112","559966","0.0-81.0-0.0","","","","","","","","","[0,1]","0","0","373.3999999910593","0","[1440,900]","1","[0,1]","0","0","626","1","0","[""#486ea7"",""#a75248""]","[""#5b7c65"",""#706081""]","76","false","[0.539,0.257,0.455,0.448]","3","0",""
"","","","","","two-step-trial","113","562660","0.0-82.0-0.0","","","","","","","","","[0,1]","1","1","431.20000000298023","0","[1440,900]","1","[0,1]","0","0","256.20000000298023","1","0","[""#486ea7"",""#a75248""]","[""#5b7c65"",""#706081""]","77","false","[0.56,0.261,0.459,0.423]","3","0",""
"","","","","","two-step-trial","114","565273","0.0-83.0-0.0","","","","","","","","","[0,1]","0","0","298.3999999910593","0","[1440,900]","1","[0,1]","0","0","309.29999999701977","1","0","[""#486ea7"",""#a75248""]","[""#5b7c65"",""#706081""]","78","false","[0.543,0.26,0.436,0.441]","3","0",""
"","","","","","two-step-trial","115","567910","0.0-84.0-0.0","","","","","","","","","[2,3]","1","3","316.20000000298023","1","[1440,900]","1","[0,1]","1","1","313.30000001192093","1","1","[""#486ea7"",""#a75248""]","[""#5b7c65"",""#706081""]","79","false","[0.536,0.268,0.465,0.475]","3","0",""
"","","","","","two-step-trial","116","570420","0.0-85.0-0.0","","","","","","","","","[0,1]","1","1","264.70000000298023","1","[1440,900]","1","[0,1]","1","1","241.20000000298023","0","0","[""#486ea7"",""#a75248""]","[""#5b7c65"",""#706081""]","80","false","[0.534,0.324,0.464,0.482]","3","0",""
"","","","","","two-step-trial","117","573070","0.0-86.0-0.0","","","","","","","","","[2,3]","1","3","353.70000000298023","1","[1440,900]","1","[0,1]","1","1","291.29999999701977","1","1","[""#486ea7"",""#a75248""]","[""#5b7c65"",""#706081""]","81","false","[0.553,0.309,0.445,0.465]","3","0",""
"","","","","","two-step-trial","118","575780","0.0-87.0-0.0","","","","","","","","","[2,3]","1","3","484.90000000596046","1","[1440,900]","1","[0,1]","1","1","221.5","1","1","[""#486ea7"",""#a75248""]","[""#5b7c65"",""#706081""]","82","false","[0.563,0.291,0.404,0.437]","3","0",""
"","","","","","two-step-trial","119","578499","0.0-88.0-0.0","","","","","","","","","[2,3]","1","3","454.5","0","[1440,900]","1","[0,1]","1","1","260.5","1","1","[""#486ea7"",""#a75248""]","[""#5b7c65"",""#706081""]","83","false","[0.563,0.298,0.442,0.474]","3","0",""
"","","","","","two-step-trial","120","581177","0.0-89.0-0.0","","","","","","","","","[2,3]","0","2","487.3999999910593","0","[1440,900]","1","[0,1]","1","1","187.59999999403954","1","1","[""#486ea7"",""#a75248""]","[""#5b7c65"",""#706081""]","84","false","[0.591,0.316,0.454,0.449]","3","0",""
"","","","","","two-step-trial","121","583620","0.0-90.0-0.0","","","","","","","","","[2,3]","1","3","360.20000000298023","0","[1440,900]","1","[0,1]","1","1","76.59999999403954","1","1","[""#486ea7"",""#a75248""]","[""#5b7c65"",""#706081""]","85","false","[0.57,0.324,0.436,0.421]","3","0",""
"","","","","","two-step-trial","122","586154","0.0-91.0-0.0","","","","","","","","","[0,1]","1","1","359","0","[1440,900]","1","[0,1]","1","1","170.6000000089407","0","0","[""#486ea7"",""#a75248""]","[""#5b7c65"",""#706081""]","86","false","[0.531,0.336,0.408,0.378]","3","0",""
"","","","","","two-step-trial","123","588664","0.0-92.0-0.0","","","","","","","","","[2,3]","1","3","290.29999999701977","0","[1440,900]","1","[0,1]","1","1","214.20000000298023","1","1","[""#486ea7"",""#a75248""]","[""#5b7c65"",""#706081""]","87","false","[0.529,0.309,0.432,0.403]","3","0",""
"","","","","","two-step-trial","124","591611","0.0-93.0-0.0","","","","","","","","","[0,1]","0","0","667","0","[1440,900]","1","[0,1]","1","1","278.19999998807907","0","0","[""#486ea7"",""#a75248""]","[""#5b7c65"",""#706081""]","88","false","[0.532,0.296,0.431,0.406]","3","0",""
"","","","","","two-step-trial","125","594965","0.0-94.0-0.0","","","","","","","","","[2,3]","0","2","1137.7999999970198","1","[1440,900]","1","[0,1]","1","1","209","1","1","[""#486ea7"",""#a75248""]","[""#5b7c65"",""#706081""]","89","false","[0.553,0.328,0.456,0.411]","3","0",""
"","","","","","two-step-trial","126","597378","0.0-95.0-0.0","","","","","","","","","[2,3]","0","2","307.69999998807907","0","[1440,900]","1","[0,1]","1","1","100.09999999403954","1","1","[""#486ea7"",""#a75248""]","[""#5b7c65"",""#706081""]","90","false","[0.542,0.3,0.493,0.409]","3","0",""
"","","","","","two-step-trial","127","599891","0.0-96.0-0.0","","","","","","","","","[2,3]","0","2","338.90000000596046","0","[1440,900]","1","[0,1]","1","1","169.70000000298023","1","1","[""#486ea7"",""#a75248""]","[""#5b7c65"",""#706081""]","91","false","[0.54,0.298,0.512,0.437]","3","0",""
"","","","","","two-step-trial","128","602784","0.0-97.0-0.0","","","","","","","","","[0,1]","0","0","688.4000000059605","1","[1440,900]","1","[0,1]","1","1","200","0","0","[""#486ea7"",""#a75248""]","[""#5b7c65"",""#706081""]","92","false","[0.564,0.281,0.499,0.45]","3","0",""
"","","","","","two-step-trial","129","605287","0.0-98.0-0.0","","","","","","","","","[2,3]","1","3","342.1000000089407","1","[1440,900]","1","[0,1]","1","1","157.5","1","1","[""#486ea7"",""#a75248""]","[""#5b7c65"",""#706081""]","93","false","[0.542,0.268,0.44,0.42]","3","0",""
"","","","","","two-step-trial","130","607918","0.0-99.0-0.0","","","","","","","","","[2,3]","1","3","378.29999999701977","0","[1440,900]","1","[0,1]","1","1","249.1000000089407","1","1","[""#486ea7"",""#a75248""]","[""#5b7c65"",""#706081""]","94","false","[0.539,0.26,0.421,0.438]","3","0",""
"","","","","","two-step-trial","131","610588","0.0-100.0-0.0","","","","","","","","","[0,1]","0","0","382.20000000298023","1","[1440,900]","1","[0,1]","1","1","281.29999999701977","0","0","[""#486ea7"",""#a75248""]","[""#5b7c65"",""#706081""]","95","false","[0.583,0.272,0.407,0.449]","3","0",""
"","","","","","two-step-trial","132","613521","0.0-101.0-0.0","","","","","","","","","[2,3]","1","3","730.4000000059605","1","[1440,900]","1","[0,1]","1","1","198","1","1","[""#486ea7"",""#a75248""]","[""#5b7c65"",""#706081""]","96","false","[0.596,0.257,0.37,0.508]","3","0",""
"","","","","","two-step-trial","133","616353","0.0-102.0-0.0","","","","","","","","","[2,3]","1","3","523.7999999970198","0","[1440,900]","1","[0,1]","1","1","301.1000000089407","1","1","[""#486ea7"",""#a75248""]","[""#5b7c65"",""#706081""]","97","false","[0.6,0.317,0.384,0.526]","3","0",""
"","","","","","two-step-trial","134","619177","0.0-103.0-0.0","","","","","","","","","[2,3]","1","3","557.5","1","[1440,900]","1","[0,1]","1","1","265.59999999403954","1","1","[""#486ea7"",""#a75248""]","[""#5b7c65"",""#706081""]","98","false","[0.573,0.304,0.387,0.504]","3","0",""
"","","","","","two-step-trial","135","621835","0.0-104.0-0.0","","","","","","","","","[2,3]","0","2","371.20000000298023","0","[1440,900]","1","[0,1]","1","1","280.70000000298023","1","1","[""#486ea7"",""#a75248""]","[""#5b7c65"",""#706081""]","99","false","[0.567,0.288,0.405,0.531]","3","0",""
"","","","","","two-step-trial","136","624745","0.0-105.0-0.0","","","","","","","","","[0,1]","0","0","770.7000000029802","1","[1440,900]","1","[0,1]","1","1","135.6000000089407","0","0","[""#486ea7"",""#a75248""]","[""#5b7c65"",""#706081""]","100","false","[0.535,0.255,0.402,0.526]","3","0",""
"","","","","","two-step-trial","137","627374","0.0-106.0-0.0","","","","","","","","","[0,1]","0","0","413","1","[1440,900]","1","[0,1]","1","1","209.09999999403954","0","0","[""#486ea7"",""#a75248""]","[""#5b7c65"",""#706081""]","101","false","[0.52,0.27,0.348,0.507]","3","0",""
"","","","","","two-step-trial","138","630107","0.0-107.0-0.0","","","","","","","","","[2,3]","1","3","615.7000000029802","0","[1440,900]","1","[0,1]","1","1","110.40000000596046","1","1","[""#486ea7"",""#a75248""]","[""#5b7c65"",""#706081""]","102","false","[0.518,0.277,0.374,0.503]","3","0",""
"","","","","","two-step-trial","139","632656","0.0-108.0-0.0","","","","","","","","","[2,3]","1","3","413","0","[1440,900]","1","[0,1]","1","1","130.59999999403954","1","1","[""#486ea7"",""#a75248""]","[""#5b7c65"",""#706081""]","103","false","[0.492,0.318,0.345,0.483]","3","0",""
"","","","","","two-step-trial","140","635289","0.0-109.0-0.0","","","","","","","","","[2,3]","0","2","415.8999999910593","0","[1440,900]","1","[0,1]","1","1","211.3999999910593","1","1","[""#486ea7"",""#a75248""]","[""#5b7c65"",""#706081""]","104","false","[0.494,0.305,0.344,0.485]","3","0",""
"","","","","","two-step-trial","141","638007","0.0-110.0-0.0","","","","","","","","","[0,1]","0","0","367.1000000089407","1","[1440,900]","1","[0,1]","0","0","344.79999999701977","1","0","[""#486ea7"",""#a75248""]","[""#5b7c65"",""#706081""]","105","false","[0.496,0.279,0.36,0.503]","3","0",""
"","","","","","two-step-trial","142","640678","0.0-111.0-0.0","","","","","","","","","[0,1]","0","0","331.1000000089407","1","[1440,900]","1","[0,1]","0","0","337.90000000596046","1","0","[""#486ea7"",""#a75248""]","[""#5b7c65"",""#706081""]","106","false","[0.522,0.291,0.358,0.537]","3","0",""
"","","","","","two-step-trial","143","643249","0.0-112.0-0.0","","","","","","","","","[0,1]","0","0","323.5","1","[1440,900]","1","[0,1]","0","0","242.59999999403954","1","0","[""#486ea7"",""#a75248""]","[""#5b7c65"",""#706081""]","107","false","[0.481,0.324,0.357,0.499]","3","0",""
"","","","","","two-step-trial","144","645829","0.0-113.0-0.0","","","","","","","","","[0,1]","0","0","296.70000000298023","0","[1440,900]","1","[0,1]","0","0","279.29999999701977","1","0","[""#486ea7"",""#a75248""]","[""#5b7c65"",""#706081""]","108","false","[0.504,0.334,0.327,0.481]","3","0",""
"","","","","","two-step-trial","145","648471","0.0-114.0-0.0","","","","","","","","","[0,1]","0","0","231.80000001192093","1","[1440,900]","1","[0,1]","0","0","403.3999999910593","1","0","[""#486ea7"",""#a75248""]","[""#5b7c65"",""#706081""]","109","false","[0.526,0.339,0.308,0.485]","3","0",""
"","","","","","two-step-trial","146","651036","0.0-115.0-0.0","","","","","","","","","[0,1]","0","0","323.40000000596046","0","[1440,900]","1","[0,1]","0","0","238.3999999910593","1","0","[""#486ea7"",""#a75248""]","[""#5b7c65"",""#706081""]","110","false","[0.551,0.358,0.295,0.444]","3","0",""
"","","","","","two-step-trial","147","653925","0.0-116.0-0.0","","","","","","","","","[0,1]","0","0","454.3999999910593","1","[1440,900]","1","[0,1]","0","0","429.20000000298023","1","0","[""#486ea7"",""#a75248""]","[""#5b7c65"",""#706081""]","111","false","[0.517,0.359,0.323,0.417]","3","0",""
"","","","","","two-step-trial","148","656472","0.0-117.0-0.0","","","","","","","","","[0,1]","0","0","350.09999999403954","0","[1440,900]","1","[0,1]","0","0","193.5","1","0","[""#486ea7"",""#a75248""]","[""#5b7c65"",""#706081""]","112","false","[0.506,0.34,0.322,0.412]","3","0",""
"","","","","","two-step-trial","149","658896","0.0-118.0-0.0","","","","","","","","","[0,1]","0","0","272.40000000596046","1","[1440,900]","1","[0,1]","0","0","145.40000000596046","1","0","[""#486ea7"",""#a75248""]","[""#5b7c65"",""#706081""]","113","false","[0.467,0.28,0.348,0.413]","3","0",""
"","","","","","two-step-trial","150","661727","0.0-119.0-0.0","","","","","","","","","[2,3]","1","3","670.7000000029802","1","[1440,900]","1","[0,1]","0","0","154.20000000298023","0","1","[""#486ea7"",""#a75248""]","[""#5b7c65"",""#706081""]","114","false","[0.494,0.276,0.373,0.43]","3","0",""
"","","","","","two-step-trial","151","664310","0.0-120.0-0.0","","","","","","","","","[0,1]","0","0","369.20000000298023","0","[1440,900]","1","[0,1]","0","0","211.90000000596046","1","0","[""#486ea7"",""#a75248""]","[""#5b7c65"",""#706081""]","115","false","[0.493,0.258,0.428,0.412]","3","0",""
"","","","","","two-step-trial","152","666843","0.0-121.0-0.0","","","","","","","","","[0,1]","0","0","292.1000000089407","1","[1440,900]","1","[0,1]","0","0","232.6000000089407","1","0","[""#486ea7"",""#a75248""]","[""#5b7c65"",""#706081""]","116","false","[0.492,0.266,0.447,0.466]","3","0",""
"","","","","","two-step-trial","153","669712","0.0-122.0-0.0","","","","","","","","","[2,3]","1","3","612.5999999940395","1","[1440,900]","1","[0,1]","0","0","249.3999999910593","0","1","[""#486ea7"",""#a75248""]","[""#5b7c65"",""#706081""]","117","false","[0.512,0.269,0.457,0.471]","3","0",""
"","","","","","two-step-trial","154","673004","0.0-123.0-0.0","","","","","","","","","[0,1]","0","0","1070","0","[1440,900]","1","[0,1]","0","0","216.5","1","0","[""#486ea7"",""#a75248""]","[""#5b7c65"",""#706081""]","118","false","[0.551,0.283,0.506,0.484]","3","0",""
"","","","","","two-step-trial","155","675866","0.0-124.0-0.0","","","","","","","","","[0,1]","0","0","452.09999999403954","1","[1440,900]","1","[0,1]","0","0","402","1","0","[""#486ea7"",""#a75248""]","[""#5b7c65"",""#706081""]","119","false","[0.537,0.273,0.462,0.473]","3","0",""
"","","","","","two-step-trial","156","679054","0.0-125.0-0.0","","","","","","","","","[0,1]","0","0","466.29999999701977","0","[1440,900]","1","[0,1]","0","0","715.7000000029802","1","0","[""#486ea7"",""#a75248""]","[""#5b7c65"",""#706081""]","120","false","[0.49,0.26,0.46,0.477]","3","0",""
"","","","","","two-step-trial","157","681360","0.0-126.0-0.0","","","","","","","","","[0,1]","1","1","270.19999998807907","0","[1440,900]","1","[0,1]","0","0","28.599999994039536","1","0","[""#486ea7"",""#a75248""]","[""#5b7c65"",""#706081""]","121","false","[0.547,0.275,0.457,0.431]","3","0",""
"","","","","","two-step-trial","158","683851","0.0-127.0-0.0","","","","","","","","","[2,3]","0","2","312.29999999701977","0","[1440,900]","1","[0,1]","0","0","172.59999999403954","0","1","[""#486ea7"",""#a75248""]","[""#5b7c65"",""#706081""]","122","false","[0.578,0.269,0.386,0.411]","3","0",""
"","","","","","two-step-trial","159","686606","0.0-128.0-0.0","","","","","","","","","[2,3]","1","3","468.29999999701977","1","[1440,900]","1","[0,1]","0","0","278.79999999701977","0","1","[""#486ea7"",""#a75248""]","[""#5b7c65"",""#706081""]","123","false","[0.639,0.269,0.384,0.429]","3","0",""
"","","","","","two-step-trial","160","689338","0.0-129.0-0.0","","","","","","","","","[0,1]","0","0","332.6000000089407","1","[1440,900]","1","[0,1]","0","0","393.90000000596046","1","0","[""#486ea7"",""#a75248""]","[""#5b7c65"",""#706081""]","124","false","[0.636,0.254,0.416,0.449]","3","0",""
"","","","","","two-step-trial","161","691799","0.0-130.0-0.0","","","","","","","","","[0,1]","0","0","368.8999999910593","0","[1440,900]","1","[0,1]","0","0","85.5","1","0","[""#486ea7"",""#a75248""]","[""#5b7c65"",""#706081""]","125","false","[0.665,0.257,0.44,0.433]","3","0",""
"","","","","","two-step-trial","162","694648","0.0-131.0-0.0","","","","","","","","","[0,1]","0","0","358.29999999701977","1","[1440,900]","1","[0,1]","0","0","488.6000000089407","1","0","[""#486ea7"",""#a75248""]","[""#5b7c65"",""#706081""]","126","false","[0.694,0.25,0.453,0.414]","3","0",""
"","","","","","two-step-trial","163","697194","0.0-132.0-0.0","","","","","","","","","[2,3]","0","2","318.5","0","[1440,900]","1","[0,1]","0","0","220.20000000298023","0","1","[""#486ea7"",""#a75248""]","[""#5b7c65"",""#706081""]","127","false","[0.666,0.266,0.449,0.399]","3","0",""
"","","","","","two-step-trial","164","700060","0.0-133.0-0.0","","","","","","","","","[2,3]","1","3","587.9000000059605","1","[1440,900]","1","[0,1]","0","0","275.09999999403954","0","1","[""#486ea7"",""#a75248""]","[""#5b7c65"",""#706081""]","128","false","[0.66,0.272,0.461,0.39]","3","0",""
"","","","","","two-step-trial","165","703174","0.0-134.0-0.0","","","","","","","","","[0,1]","0","0","904.1999999880791","1","[1440,900]","1","[0,1]","0","0","204.59999999403954","1","0","[""#486ea7"",""#a75248""]","[""#5b7c65"",""#706081""]","129","false","[0.677,0.288,0.452,0.388]","3","0",""
"","","","","","two-step-trial","166","706353","0.0-135.0-0.0","","","","","","","","","[0,1]","0","0","947.2999999970198","1","[1440,900]","1","[0,1]","0","0","230.1000000089407","1","0","[""#486ea7"",""#a75248""]","[""#5b7c65"",""#706081""]","130","false","[0.654,0.252,0.415,0.434]","3","0",""
"","","","","","two-step-trial","167","709245","0.0-136.0-0.0","","","","","","","","","[0,1]","0","0","664","1","[1440,900]","1","[0,1]","0","0","226.5","1","0","[""#486ea7"",""#a75248""]","[""#5b7c65"",""#706081""]","131","false","[0.662,0.271,0.398,0.411]","3","0",""
"","","","","","two-step-trial","168","711883","0.0-137.0-0.0","","","","","","","","","[0,1]","0","0","387.79999999701977","0","[1440,900]","1","[0,1]","0","0","243.79999999701977","1","0","[""#486ea7"",""#a75248""]","[""#5b7c65"",""#706081""]","132","false","[0.661,0.29,0.402,0.435]","3","0",""
"","","","","","two-step-trial","169","714332","0.0-138.0-0.0","","","","","","","","","[0,1]","0","0","301.5","1","[1440,900]","1","[0,1]","0","0","140.80000001192093","1","0","[""#486ea7"",""#a75248""]","[""#5b7c65"",""#706081""]","133","false","[0.665,0.307,0.385,0.395]","3","0",""
"","","","","","two-step-trial","170","716858","0.0-139.0-0.0","","","","","","","","","[0,1]","0","0","291.1000000089407","1","[1440,900]","1","[0,1]","0","0","230.5","1","0","[""#486ea7"",""#a75248""]","[""#5b7c65"",""#706081""]","134","false","[0.696,0.308,0.332,0.425]","3","0",""
"","","","","","two-step-trial","171","719524","0.0-140.0-0.0","","","","","","","","","[0,1]","0","0","401.20000000298023","1","[1440,900]","1","[0,1]","0","0","260.1000000089407","1","0","[""#486ea7"",""#a75248""]","[""#5b7c65"",""#706081""]","135","false","[0.68,0.339,0.346,0.425]","3","0",""
"","","","","","two-step-trial","172","722315","0.0-141.0-0.0","","","","","","","","","[2,3]","1","3","571.2000000029802","1","[1440,900]","1","[0,1]","0","0","215.3999999910593","0","1","[""#486ea7"",""#a75248""]","[""#5b7c65"",""#706081""]","136","false","[0.674,0.33,0.342,0.403]","3","0",""
"","","","","","two-step-trial","173","724980","0.0-142.0-0.0","","","","","","","","","[0,1]","0","0","381.70000000298023","1","[1440,900]","1","[0,1]","0","0","276.70000000298023","1","0","[""#486ea7"",""#a75248""]","[""#5b7c65"",""#706081""]","137","false","[0.699,0.293,0.329,0.403]","3","0",""
"","","","","","two-step-trial","174","727823","0.0-143.0-0.0","","","","","","","","","[0,1]","0","0","452.80000001192093","0","[1440,900]","1","[0,1]","0","0","384.5","1","0","[""#486ea7"",""#a75248""]","[""#5b7c65"",""#706081""]","138","false","[0.734,0.332,0.387,0.413]","3","0",""
"","","","","","two-step-trial","175","730479","0.0-144.0-0.0","","","","","","","","","[0,1]","0","0","398.80000001192093","1","[1440,900]","1","[0,1]","0","0","249.90000000596046","1","0","[""#486ea7"",""#a75248""]","[""#5b7c65"",""#706081""]","139","false","[0.692,0.301,0.41,0.413]","3","0",""
"","","","","","two-step-trial","176","733146","0.0-145.0-0.0","","","","","","","","","[0,1]","0","0","367.40000000596046","1","[1440,900]","1","[0,1]","0","0","292.09999999403954","1","0","[""#486ea7"",""#a75248""]","[""#5b7c65"",""#706081""]","140","false","[0.722,0.286,0.408,0.406]","3","0",""
"","","","","","two-step-trial","177","735772","0.0-146.0-0.0","","","","","","","","","[0,1]","0","0","374","1","[1440,900]","1","[0,1]","0","0","247","1","0","[""#486ea7"",""#a75248""]","[""#5b7c65"",""#706081""]","141","false","[0.748,0.253,0.428,0.403]","3","0",""
"","","","","","two-step-trial","178","738373","0.0-147.0-0.0","","","","","","","","","[0,1]","0","0","347.29999999701977","1","[1440,900]","1","[0,1]","0","0","246.69999998807907","1","0","[""#486ea7"",""#a75248""]","[""#5b7c65"",""#706081""]","142","false","[0.73,0.307,0.452,0.407]","3","0",""
"","","","","","two-step-trial","179","740941","0.0-148.0-0.0","","","","","","","","","[2,3]","0","2","313.09999999403954","1","[1440,900]","1","[0,1]","0","0","247.59999999403954","0","1","[""#486ea7"",""#a75248""]","[""#5b7c65"",""#706081""]","143","false","[0.722,0.322,0.426,0.388]","3","0",""
"","","","","","two-step-trial","180","743648","0.0-149.0-0.0","","","","","","","","","[0,1]","0","0","465.20000000298023","0","[1440,900]","1","[0,1]","0","0","239.29999999701977","1","0","[""#486ea7"",""#a75248""]","[""#5b7c65"",""#706081""]","144","false","[0.741,0.323,0.436,0.398]","3","0",""
"","","","","","two-step-trial","181","746436","0.0-150.0-0.0","","","","","","","","","[0,1]","0","0","513.7000000029802","1","[1440,900]","1","[0,1]","0","0","273.09999999403954","1","0","[""#486ea7"",""#a75248""]","[""#5b7c65"",""#706081""]","145","false","[0.741,0.294,0.454,0.41]","3","0",""
"","","","","","two-step-trial","182","749402","0.0-151.0-0.0","","","","","","","","","[2,3]","1","3","400.90000000596046","0","[1440,900]","1","[0,1]","0","0","559.1999999880791","0","1","[""#486ea7"",""#a75248""]","[""#5b7c65"",""#706081""]","146","false","[0.741,0.316,0.493,0.383]","3","0",""
"","","","","","two-step-trial","183","752355","0.0-152.0-0.0","","","","","","","","","[0,1]","0","0","690.4000000059605","1","[1440,900]","1","[0,1]","0","0","256.40000000596046","1","0","[""#486ea7"",""#a75248""]","[""#5b7c65"",""#706081""]","147","false","[0.733,0.288,0.53,0.358]","3","0",""
"","","","","","two-step-trial","184","755191","0.0-153.0-0.0","","","","","","","","","[0,1]","0","0","400.3999999910593","0","[1440,900]","1","[0,1]","0","0","426.5","1","0","[""#486ea7"",""#a75248""]","[""#5b7c65"",""#706081""]","148","false","[0.739,0.274,0.493,0.38]","3","0",""
"","","","","","two-step-trial","185","758219","0.0-154.0-0.0","","","","","","","","","[0,1]","1","1","620.6000000089407","1","[1440,900]","1","[0,1]","0","0","405.20000000298023","1","0","[""#486ea7"",""#a75248""]","[""#5b7c65"",""#706081""]","149","false","[0.736,0.271,0.496,0.399]","3","0",""
"","","","","","two-step-trial","186","761112","0.0-155.0-0.0","","","","","","","","","[0,1]","0","0","410","1","[1440,900]","1","[0,1]","0","0","477","1","0","[""#486ea7"",""#a75248""]","[""#5b7c65"",""#706081""]","150","false","[0.727,0.278,0.471,0.409]","3","0",""
"","","","","","two-step-instructions","187","771054","0.0-156.0","9941.70000000298","","","[{""page_index"":0,""viewing_time"":9941.5}]","","","","","","","","","","","","","","","","","","","","","","","","",""
"","","","","","two-step-comprehension","188","792894","0.0-157.0","21839.29999999702","","","","[""blue"",""red""]","0","","","","","","","","","","","","","","","","","","","","","","","[{""event"":""fullscreenenter"",""trial"":1,""time"":2223}]"
