"success","timeout","failed_images","failed_audio","failed_video","trial_type","trial_index","time_elapsed","internal_node_id","rt","stimulus","response","view_history","state_1_ids","state_1_key","state_1_choice","state_1_rt","transition","state","state_2_ids","state_2_key","state_2_choice","state_2_rt","outcome","rocket_colors","planet_colors","screen_resolution","minimum_resolution","trial","drifts","drift_ix","browser_interactions","missing","responses","num_errors","interactions"
"true","false","[]","[]","[]","preload","0","114","0.0-0.0","","","","","","","","","","","","","","","","","","","","","","","","","","",""
"true","","","","","fullscreen","1","2910","0.0-1.0","","","","","","","","","","","","","","","","","","","","","","","","","","",""
"","","","","","html-keyboard-response","2","8908","0.0-2.0","5997.29999999702","<p>You are starting a demo of the <b>two-step task.</b></p><p>To see the instructions, press the ""1"" key. To skip them, press the ""2"" key.</p>","2","","","","","","","","","","","","","","","","","","","","","","","",""
"","","","","","two-step-instructions","3","17206","0.0-4.0","8297.20000000298","","","[{""page_index"":0,""viewing_time"":6088.600000008941},{""page_index"":1,""viewing_time"":1074.5},{""page_index"":2,""viewing_time"":1134}]","","","","","","","","","","","","","","","","","","","","","","",""
"","","","","","two-step-trial","4","21644","0.0-5.0-0.0","","","","","[0,1]","1","1","589.7000000029802","0","0","[0,1]","0","0","1841.8999999910593","0","[""#955db9"",""#48a782""]","[""#5f6f81"",""#7f5d5d""]","[1440,900]","1","1","[0.6,0.51,0.387,0.388]","0","0","false","","",""
"","","","","","two-step-trial","5","24727","0.0-6.0-0.0","","","","","[0,1]","1","1","353.09999999403954","1","1","[2,3]","1","3","722.7000000029802","0","[""#955db9"",""#48a782""]","[""#5f6f81"",""#7f5d5d""]","[1440,900]","1","2","[0.6,0.49,0.376,0.364]","0","0","false","","",""
"","","","","","two-step-trial","6","29026","0.0-7.0-0.0","","","","","[0,1]","1","1","922.7999999970198","0","0","[0,1]","1","1","1372.7000000029802","1","[""#955db9"",""#48a782""]","[""#5f6f81"",""#7f5d5d""]","[1440,900]","1","3","[0.612,0.488,0.376,0.385]","0","0","false","","",""
"","","","","","two-step-trial","7","33728","0.0-8.0-0.0","","","","","[0,1]","1","1","472.90000000596046","1","1","[2,3]","0","2","2222.1000000089407","1","[""#955db9"",""#48a782""]","[""#5f6f81"",""#7f5d5d""]","[1440,900]","1","4","[0.659,0.517,0.37,0.352]","0","0","false","","",""
"","","","","","two-step-trial","8","37153","0.0-9.0-0.0","","","","","[0,1]","1","1","663.4000000059605","1","1","[2,3]","0","2","756.5999999940395","0","[""#955db9"",""#48a782""]","[""#5f6f81"",""#7f5d5d""]","[1440,900]","1","5","[0.676,0.497,0.349,0.378]","0","0","false","","",""
"","","","","","two-step-trial","9","40105","0.0-10.0-0.0","","","","","[0,1]","1","1","310.09999999403954","1","1","[2,3]","1","3","636.2000000029802","1","[""#955db9"",""#48a782""]","[""#5f6f81"",""#7f5d5d""]","[1440,900]","1","6","[0.682,0.475,0.347,0.386]","0","0","false","","",""
"","","","","","two-step-trial","10","43116","0.0-11.0-0.0","","","","","[0,1]","1","1","249.8999999910593","0","0","[0,1]","0","0","752.7999999970198","0","[""#955db9"",""#48a782""]","[""#5f6f81"",""#7f5d5d""]","[1440,900]","1","7","[0.65,0.473,0.346,0.344]","0","0","false","","",""
"","","","","","two-step-trial","11","45846","0.0-12.0-0.0","","","","","[0,1]","1","1","307.5","1","1","[2,3]","1","3","413.59999999403954","0","[""#955db9"",""#48a782""]","[""#5f6f81"",""#7f5d5d""]","[1440,900]","1","8","[0.637,0.456,0.371,0.318]","0","0","false","","",""
"","","","","","two-step-trial","12","49599","0.0-13.0-0.0","","","","","[0,1]","1","1","304.29999999701977","0","0","[0,1]","1","1","1444.699999988079","1","[""#955db9"",""#48a782""]","[""#5f6f81"",""#7f5d5d""]","[1440,900]","1","9","[0.637,0.443,0.354,0.311]","0","0","false","","",""
"","","","","","two-step-trial","13","52777","0.0-14.0-0.0","","","","","[0,1]","1","1","364.40000000596046","1","1","[2,3]","0","2","809.2999999970198","1","[""#955db9"",""#48a782""]","[""#5f6f81"",""#7f5d5d""]","[1440,900]","1","10","[0.63,0.435,0.315,0.32]","0","0","false","","",""
"","","","","","two-step-trial","14","55382","0.0-15.0-0.0","","","","","[0,1]","1","1","248.30000001192093","1","1","[2,3]","0","2","349.30000001192093","0","[""#955db9"",""#48a782""]","[""#5f6f81"",""#7f5d5d""]","[1440,900]","1","11","[0.599,0.48,0.291,0.32]","0","0","false","","",""
"","","","","","two-step-trial","15","57861","0.0-16.0-0.0","","","","","[0,1]","1","1","110.20000000298023","1","1","[2,3]","0","2","365.1000000089407","0","[""#955db9"",""#48a782""]","[""#5f6f81"",""#7f5d5d""]","[1440,900]","1","12","[0.573,0.445,0.3,0.33]","0","0","false","","",""
"","","","","","two-step-trial","16","60661","0.0-17.0-0.0","","","","","[0,1]","1","1","189.69999998807907","1","1","[2,3]","1","3","603.5","0","[""#955db9"",""#48a782""]","[""#5f6f81"",""#7f5d5d""]","[1440,900]","1","13","[0.6,0.4,0.3,0.32]","0","0","false","","",""
"","","","","","two-step-trial","17","63279","0.0-18.0-0.0","","","","","[0,1]","1","1","188","1","1","[2,3]","1","3","423.5","0","[""#955db9"",""#48a782""]","[""#5f6f81"",""#7f5d5d""]","[1440,900]","1","14","[0.601,0.428,0.308,0.274]","0","0","false","","",""
"","","","","","two-step-trial","18","66619","0.0-19.0-0.0","","","","","[0,1]","1","1","203.69999998807907","0","0","[0,1]","0","0","1132.4000000059605","0","[""#955db9"",""#48a782""]","[""#5f6f81"",""#7f5d5d""]","[1440,900]","1","15","[0.588,0.441,0.345,0.295]","0","0","false","","",""
"","","","","","two-step-trial","19","70114","0.0-20.0-0.0","","","","","[0,1]","1","1","267.20000000298023","0","0","[0,1]","1","1","1223.199999988079","0","[""#955db9"",""#48a782""]","[""#5f6f81"",""#7f5d5d""]","[1440,900]","1","16","[0.641,0.463,0.39,0.301]","0","0","false","","",""
"","","","","","two-step-trial","20","72973","0.0-21.0-0.0","","","","","[0,1]","1","1","210.6000000089407","1","1","[2,3]","1","3","643.8999999910593","0","[""#955db9"",""#48a782""]","[""#5f6f81"",""#7f5d5d""]","[1440,900]","1","17","[0.649,0.465,0.413,0.325]","0","0","false","","",""
"","","","","","two-step-trial","21","75931","0.0-22.0-0.0","","","","","[0,1]","1","1","290.5","0","0","[0,1]","0","0","665.7999999970198","0","[""#955db9"",""#48a782""]","[""#5f6f81"",""#7f5d5d""]","[1440,900]","1","18","[0.627,0.478,0.397,0.324]","0","0","false","","",""
"","","","","","two-step-trial","22","78512","0.0-23.0-0.0","","","","","[0,1]","1","1","265.5","0","0","[0,1]","1","1","310","1","[""#955db9"",""#48a782""]","[""#5f6f81"",""#7f5d5d""]","[1440,900]","1","19","[0.656,0.491,0.375,0.348]","0","0","false","","",""
"","","","","","two-step-trial","23","81197","0.0-24.0-0.0","","","","","[0,1]","1","1","202.79999999701977","0","0","[0,1]","1","1","477.1000000089407","0","[""#955db9"",""#48a782""]","[""#5f6f81"",""#7f5d5d""]","[1440,900]","1","20","[0.64,0.468,0.396,0.335]","0","0","false","","",""
"","","","","","two-step-trial","24","84732","0.0-25.0-0.0","","","","","[0,1]","1","1","234.70000000298023","1","1","[2,3]","1","3","1293.5","1","[""#955db9"",""#48a782""]","[""#5f6f81"",""#7f5d5d""]","[1440,900]","1","21","[0.633,0.467,0.352,0.33]","0","0","false","","",""
"","","","","","two-step-trial","25","87390","0.0-26.0-0.0","","","","","[0,1]","1","1","245.70000000298023","0","0","[0,1]","0","0","403.1000000089407","0","[""#955db9"",""#48a782""]","[""#5f6f81"",""#7f5d5d""]","[1440,900]","1","22","[0.591,0.462,0.379,0.373]","0","0","false","","",""
"","","","","","two-step-trial","26","90295","0.0-27.0-0.0","","","","","[0,1]","1","1","171.29999999701977","1","1","[2,3]","1","3","726.5999999940395","0","[""#955db9"",""#48a782""]","[""#5f6f81"",""#7f5d5d""]","[1440,900]","1","23","[0.612,0.436,0.44,0.331]","0","0","false","","",""
"","","","","","two-step-trial","27","93866","0.0-28.0-0.0","","","","","[0,1]","1","1","214.29999999701977","0","0","[0,1]","0","0","1349.5","0","[""#955db9"",""#48a782""]","[""#5f6f81"",""#7f5d5d""]","[1440,900]","1","24","[0.612,0.434,0.473,0.352]","0","0","false","","",""
"","","","","","two-step-trial","28","97000","0.0-29.0-0.0","","","","","[0,1]","0","0","249","1","0","[0,1]","0","0","878.2999999970198","1","[""#955db9"",""#48a782""]","[""#5f6f81"",""#7f5d5d""]","[1440,900]","1","25","[0.568,0.394,0.47,0.342]","0","0","false","","",""
"","","","","","two-step-trial","29","99639","0.0-30.0-0.0","","","","","[0,1]","0","0","226.20000000298023","0","1","[2,3]","1","3","405.29999999701977","1","[""#955db9"",""#48a782""]","[""#5f6f81"",""#7f5d5d""]","[1440,900]","1","26","[0.601,0.434,0.455,0.342]","0","0","false","","",""
"","","","","","two-step-trial","30","103106","0.0-31.0-0.0","","","","","[0,1]","0","0","214.3999999910593","1","0","[0,1]","1","1","1246.1000000089407","0","[""#955db9"",""#48a782""]","[""#5f6f81"",""#7f5d5d""]","[1440,900]","1","27","[0.539,0.464,0.435,0.334]","0","0","false","","",""
"","","","","","two-step-trial","31","106282","0.0-32.0-0.0","","","","","[0,1]","0","0","271.29999999701977","0","1","[2,3]","1","3","897.2999999970198","1","[""#955db9"",""#48a782""]","[""#5f6f81"",""#7f5d5d""]","[1440,900]","1","28","[0.523,0.476,0.415,0.352]","0","0","false","","",""
"","","","","","two-step-trial","32","109156","0.0-33.0-0.0","","","","","[0,1]","0","0","278.80000001192093","1","0","[0,1]","0","0","590.1000000089407","0","[""#955db9"",""#48a782""]","[""#5f6f81"",""#7f5d5d""]","[1440,900]","1","29","[0.515,0.504,0.459,0.339]","0","0","false","","",""
"","","","","","two-step-trial","33","111937","0.0-34.0-0.0","","","","","[0,1]","0","0","295.29999999701977","1","0","[0,1]","0","0","480.20000000298023","0","[""#955db9"",""#48a782""]","[""#5f6f81"",""#7f5d5d""]","[1440,900]","1","30","[0.491,0.488,0.491,0.323]","0","0","false","","",""
"","","","","","two-step-trial","34","114634","0.0-35.0-0.0","","","","","[0,1]","0","0","338.5","1","0","[0,1]","1","1","350.70000000298023","1","[""#955db9"",""#48a782""]","[""#5f6f81"",""#7f5d5d""]","[1440,900]","1","31","[0.478,0.502,0.474,0.353]","0","0","false","","",""
"","","","","","two-step-trial","35","118137","0.0-36.0-0.0","","","","","[0,1]","0","0","287.80000001192093","0","1","[2,3]","1","3","1212.800000011921","1","[""#955db9"",""#48a782""]","[""#5f6f81"",""#7f5d5d""]","[1440,900]","1","32","[0.459,0.453,0.457,0.338]","0","0","false","","",""
"","","","","","two-step-trial","36","120799","0.0-37.0-0.0","","","","","[0,1]","0","0","222.3999999910593","0","1","[2,3]","1","3","432.3999999910593","0","[""#955db9"",""#48a782""]","[""#5f6f81"",""#7f5d5d""]","[1440,900]","1","33","[0.435,0.461,0.485,0.304]","0","0","false","","",""
"","","","","","two-step-trial","37","123800","0.0-38.0-0.0","","","","","[0,1]","0","0","201.20000000298023","1","0","[0,1]","1","1","793.8999999910593","0","[""#955db9"",""#48a782""]","[""#5f6f81"",""#7f5d5d""]","[1440,900]","1","34","[0.425,0.445,0.448,0.302]","0","0","false","","",""
"","","","","","two-step-trial","38","126549","0.0-39.0-0.0","","","","","[0,1]","0","0","225.70000000298023","0","1","[2,3]","1","3","514.3999999910593","1","[""#955db9"",""#48a782""]","[""#5f6f81"",""#7f5d5d""]","[1440,900]","1","35","[0.398,0.417,0.401,0.285]","0","0","false","","",""
"","","","","","two-step-trial","39","129261","0.0-40.0-0.0","","","","","[0,1]","0","0","13.799999997019768","1","0","[0,1]","1","1","695.0999999940395","1","[""#955db9"",""#48a782""]","[""#5f6f81"",""#7f5d5d""]","[1440,900]","1","36","[0.438,0.401,0.404,0.302]","0","0","false","","",""
"","","","","","two-step-trial","40","131651","0.0-41.0-0.0","","","","","[0,1]","0","0","43.29999999701977","0","1","[2,3]","1","3","334.79999999701977","1","[""#955db9"",""#48a782""]","[""#5f6f81"",""#7f5d5d""]","[1440,900]","1","37","[0.446,0.383,0.396,0.273]","0","0","false","","",""
"","","","","","two-step-trial","41","134245","0.0-42.0-0.0","","","","","[0,1]","0","0","67.19999998807907","1","0","[0,1]","1","1","524.7000000029802","1","[""#955db9"",""#48a782""]","[""#5f6f81"",""#7f5d5d""]","[1440,900]","1","38","[0.473,0.425,0.406,0.259]","0","0","false","","",""
"","","","","","two-step-trial","42","136820","0.0-43.0-0.0","","","","","[0,1]","0","0","227.5","0","1","[2,3]","1","3","341.70000000298023","1","[""#955db9"",""#48a782""]","[""#5f6f81"",""#7f5d5d""]","[1440,900]","1","39","[0.491,0.414,0.381,0.251]","0","0","false","","",""
"","","","","","two-step-trial","43","139159","0.0-44.0-0.0","","","","","[0,1]","0","0","31.700000002980232","0","1","[2,3]","1","3","304.1000000089407","1","[""#955db9"",""#48a782""]","[""#5f6f81"",""#7f5d5d""]","[1440,900]","1","40","[0.46,0.404,0.375,0.267]","0","0","false","","",""
"","","","","","two-step-trial","44","142017","0.0-45.0-0.0","","","","","[0,1]","0","0","221.79999999701977","1","0","[0,1]","1","1","629.5999999940395","0","[""#955db9"",""#48a782""]","[""#5f6f81"",""#7f5d5d""]","[1440,900]","1","41","[0.47,0.46,0.37,0.279]","0","0","false","","",""
"","","","","","two-step-trial","45","144526","0.0-46.0-0.0","","","","","[0,1]","0","0","69.59999999403954","1","0","[0,1]","1","1","432.5","1","[""#955db9"",""#48a782""]","[""#5f6f81"",""#7f5d5d""]","[1440,900]","1","42","[0.454,0.461,0.369,0.275]","0","0","false","","",""
"","","","","","two-step-trial","46","147135","0.0-47.0-0.0","","","","","[0,1]","0","0","283.1000000089407","1","0","[0,1]","1","1","319.70000000298023","1","[""#955db9"",""#48a782""]","[""#5f6f81"",""#7f5d5d""]","[1440,900]","1","43","[0.452,0.459,0.392,0.293]","0","0","false","","",""
"","","","","","two-step-trial","47","149688","0.0-48.0-0.0","","","","","[0,1]","0","0","263.1000000089407","1","0","[0,1]","1","1","286.1000000089407","0","[""#955db9"",""#48a782""]","[""#5f6f81"",""#7f5d5d""]","[1440,900]","1","44","[0.439,0.428,0.412,0.329]","0","0","false","","",""
"","","","","","two-step-trial","48","152241","0.0-49.0-0.0","","","","","[0,1]","0","0","254.3999999910593","1","0","[0,1]","1","1","295.09999999403954","0","[""#955db9"",""#48a782""]","[""#5f6f81"",""#7f5d5d""]","[1440,900]","1","45","[0.455,0.384,0.41,0.354]","0","0","false","","",""
"","","","","","two-step-trial","49","154612","0.0-50.0-0.0","","","","","[0,1]","0","0","75.5","1","0","[0,1]","0","0","289.40000000596046","1","[""#955db9"",""#48a782""]","[""#5f6f81"",""#7f5d5d""]","[1440,900]","1","46","[0.471,0.375,0.394,0.336]","0","0","false","","",""
"","","","","","two-step-trial","50","157145","0.0-51.0-0.0","","","","","[0,1]","0","0","219.79999999701977","1","0","[0,1]","1","1","310.59999999403954","0","[""#955db9"",""#48a782""]","[""#5f6f81"",""#7f5d5d""]","[1440,900]","1","47","[0.423,0.325,0.351,0.294]","0","0","false","","",""
"","","","","","two-step-trial","51","159674","0.0-52.0-0.0","","","","","[0,1]","0","0","228.20000000298023","1","0","[0,1]","0","0","292.20000000298023","0","[""#955db9"",""#48a782""]","[""#5f6f81"",""#7f5d5d""]","[1440,900]","1","48","[0.458,0.334,0.355,0.324]","0","0","false","","",""
"","","","","","two-step-trial","52","162220","0.0-53.0-0.0","","","","","[0,1]","0","0","245.09999999403954","1","0","[0,1]","1","1","295.79999999701977","1","[""#955db9"",""#48a782""]","[""#5f6f81"",""#7f5d5d""]","[1440,900]","1","49","[0.502,0.353,0.35,0.322]","0","0","false","","",""
"","","","","","two-step-trial","53","164831","0.0-54.0-0.0","","","","","[0,1]","0","0","260.29999999701977","0","1","[2,3]","1","3","343.29999999701977","0","[""#955db9"",""#48a782""]","[""#5f6f81"",""#7f5d5d""]","[1440,900]","1","50","[0.464,0.368,0.367,0.351]","0","0","false","","",""
"","","","","","two-step-trial","54","167390","0.0-55.0-0.0","","","","","[0,1]","0","0","265.70000000298023","1","0","[0,1]","0","0","285.29999999701977","1","[""#955db9"",""#48a782""]","[""#5f6f81"",""#7f5d5d""]","[1440,900]","1","51","[0.459,0.421,0.341,0.301]","0","0","false","","",""
"","","","","","two-step-trial","55","170161","0.0-56.0-0.0","","","","","[0,1]","0","0","354.79999999701977","1","0","[0,1]","0","0","413.1000000089407","0","[""#955db9"",""#48a782""]","[""#5f6f81"",""#7f5d5d""]","[1440,900]","1","52","[0.496,0.401,0.388,0.295]","0","0","false","","",""
"","","","","","two-step-trial","56","172753","0.0-57.0-0.0","","","","","[0,1]","0","0","258.29999999701977","1","0","[0,1]","1","1","323.90000000596046","0","[""#955db9"",""#48a782""]","[""#5f6f81"",""#7f5d5d""]","[1440,900]","1","53","[0.476,0.391,0.373,0.273]","0","0","false","","",""
"","","","","","two-step-trial","57","175262","0.0-58.0-0.0","","","","","[0,1]","0","0","187","1","0","[0,1]","0","0","319","0","[""#955db9"",""#48a782""]","[""#5f6f81"",""#7f5d5d""]","[1440,900]","1","54","[0.452,0.379,0.383,0.272]","0","0","false","","",""
"","","","","","two-step-trial","58","177622","0.0-59.0-0.0","","","","","[0,1]","0","0","75.80000001192093","1","0","[0,1]","1","1","276.90000000596046","0","[""#955db9"",""#48a782""]","[""#5f6f81"",""#7f5d5d""]","[1440,900]","1","55","[0.448,0.393,0.401,0.289]","0","0","false","","",""
"","","","","","two-step-trial","59","180147","0.0-60.0-0.0","","","","","[0,1]","0","0","240.59999999403954","0","1","[2,3]","0","2","282.5","0","[""#955db9"",""#48a782""]","[""#5f6f81"",""#7f5d5d""]","[1440,900]","1","56","[0.435,0.368,0.433,0.291]","0","0","false","","",""
"","","","","","two-step-trial","60","182828","0.0-61.0-0.0","","","","","[0,1]","0","0","281.3999999910593","0","1","[2,3]","1","3","393.3999999910593","1","[""#955db9"",""#48a782""]","[""#5f6f81"",""#7f5d5d""]","[1440,900]","1","57","[0.441,0.373,0.443,0.285]","0","0","false","","",""
"","","","","","two-step-trial","61","185927","0.0-62.0-0.0","","","","","[0,1]","0","0","199.40000000596046","1","0","[0,1]","1","1","892.3999999910593","0","[""#955db9"",""#48a782""]","[""#5f6f81"",""#7f5d5d""]","[1440,900]","1","58","[0.418,0.389,0.42,0.282]","0","0","false","","",""
"","","","","","two-step-trial","62","188674","0.0-63.0-0.0","","","","","[0,1]","1","1","166.69999998807907","1","1","[2,3]","1","3","578.5999999940395","0","[""#955db9"",""#48a782""]","[""#5f6f81"",""#7f5d5d""]","[1440,900]","1","59","[0.41,0.383,0.392,0.255]","0","0","false","","",""
"","","","","","two-step-trial","63","191425","0.0-64.0-0.0","","","","","[0,1]","1","1","454.09999999403954","1","1","[2,3]","1","3","291.70000000298023","0","[""#955db9"",""#48a782""]","[""#5f6f81"",""#7f5d5d""]","[1440,900]","1","60","[0.426,0.384,0.354,0.267]","0","0","false","","",""
"","","","","","two-step-trial","64","194183","0.0-65.0-0.0","","","","","[0,1]","1","1","278.5","1","1","[2,3]","1","3","472.8999999910593","0","[""#955db9"",""#48a782""]","[""#5f6f81"",""#7f5d5d""]","[1440,900]","1","61","[0.416,0.414,0.379,0.254]","0","0","false","","",""
"","","","","","two-step-trial","65","196827","0.0-66.0-0.0","","","","","[0,1]","1","1","167.09999999403954","1","1","[2,3]","0","2","472.90000000596046","0","[""#955db9"",""#48a782""]","[""#5f6f81"",""#7f5d5d""]","[1440,900]","1","62","[0.353,0.414,0.383,0.26]","0","0","false","","",""
"","","","","","two-step-trial","66","199563","0.0-67.0-0.0","","","","","[0,1]","0","0","486","1","0","[0,1]","1","1","243","1","[""#955db9"",""#48a782""]","[""#5f6f81"",""#7f5d5d""]","[1440,900]","1","63","[0.293,0.383,0.425,0.266]","0","0","false","","",""
"","","","","","two-step-trial","67","202516","0.0-68.0-0.0","","","","","[0,1]","1","1","243.29999999701977","1","1","[2,3]","0","2","704.3000000119209","0","[""#955db9"",""#48a782""]","[""#5f6f81"",""#7f5d5d""]","[1440,900]","1","64","[0.288,0.362,0.432,0.275]","0","0","false","","",""
"","","","","","two-step-trial","68","204832","0.0-69.0-0.0","","","","","[0,1]","0","0","13.700000002980232","1","0","[0,1]","1","1","295.5","1","[""#955db9"",""#48a782""]","[""#5f6f81"",""#7f5d5d""]","[1440,900]","1","65","[0.297,0.363,0.457,0.29]","0","0","false","","",""
"","","","","","two-step-trial","69","207357","0.0-70.0-0.0","","","","","[0,1]","0","0","197.09999999403954","1","0","[0,1]","1","1","319.3999999910593","1","[""#955db9"",""#48a782""]","[""#5f6f81"",""#7f5d5d""]","[1440,900]","1","66","[0.25,0.333,0.451,0.284]","0","0","false","","",""
"","","","","","two-step-trial","70","210695","0.0-71.0-0.0","","","","","[0,1]","0","0","250.20000000298023","0","1","[2,3]","0","2","1082.7000000029802","1","[""#955db9"",""#48a782""]","[""#5f6f81"",""#7f5d5d""]","[1440,900]","1","67","[0.255,0.331,0.425,0.278]","0","0","false","","",""
"","","","","","two-step-trial","71","213208","0.0-72.0-0.0","","","","","[0,1]","0","0","231.3999999910593","1","0","[0,1]","1","1","278.1000000089407","0","[""#955db9"",""#48a782""]","[""#5f6f81"",""#7f5d5d""]","[1440,900]","1","68","[0.281,0.326,0.434,0.261]","0","0","false","","",""
"","","","","","two-step-trial","72","215647","0.0-73.0-0.0","","","","","[0,1]","0","0","149.5","1","0","[0,1]","1","1","287.09999999403954","1","[""#955db9"",""#48a782""]","[""#5f6f81"",""#7f5d5d""]","[1440,900]","1","69","[0.277,0.319,0.434,0.286]","0","0","false","","",""
"","","","","","two-step-trial","73","218152","0.0-74.0-0.0","","","","","[0,1]","0","0","213.70000000298023","1","0","[0,1]","1","1","288.29999999701977","0","[""#955db9"",""#48a782""]","[""#5f6f81"",""#7f5d5d""]","[1440,900]","1","70","[0.318,0.351,0.474,0.272]","0","0","false","","",""
"","","","","","two-step-trial","74","220443","0.0-75.0-0.0","","","","","[0,1]","0","0","1.8999999910593033","0","1","[2,3]","1","3","285.09999999403954","0","[""#955db9"",""#48a782""]","[""#5f6f81"",""#7f5d5d""]","[1440,900]","1","71","[0.306,0.331,0.46,0.274]","0","0","false","","",""
"","","","","","two-step-trial","75","222868","0.0-76.0-0.0","","","","","[0,1]","0","0","149","0","1","[2,3]","0","2","268.8999999910593","0","[""#955db9"",""#48a782""]","[""#5f6f81"",""#7f5d5d""]","[1440,900]","1","72","[0.35,0.329,0.432,0.251]","0","0","false","","",""
"","","","","","two-step-trial","76","225388","0.0-77.0-0.0","","","","","[0,1]","0","0","251.80000001192093","1","0","[0,1]","1","1","262.20000000298023","0","[""#955db9"",""#48a782""]","[""#5f6f81"",""#7f5d5d""]","[1440,900]","1","73","[0.352,0.318,0.461,0.257]","0","0","false","","",""
"","","","","","two-step-trial","77","228131","0.0-78.0-0.0","","","","","[0,1]","0","0","201.20000000298023","1","0","[0,1]","0","0","507","0","[""#955db9"",""#48a782""]","[""#5f6f81"",""#7f5d5d""]","[1440,900]","1","74","[0.374,0.315,0.514,0.262]","0","0","false","","",""
"","","","","","two-step-trial","78","230475","0.0-79.0-0.0","","","","","[0,1]","0","0","110.8999999910593","1","0","[0,1]","1","1","226.40000000596046","0","[""#955db9"",""#48a782""]","[""#5f6f81"",""#7f5d5d""]","[1440,900]","1","75","[0.405,0.348,0.504,0.256]","0","0","false","","",""
"","","","","","two-step-instructions","79","232971","0.0-80.0","2494.9000000059605","","","[{""page_index"":0,""viewing_time"":1542.7999999970198},{""page_index"":1,""viewing_time"":952}]","","","","","","","","","","","","","","","","","","","","","","",""
"","","","","","two-step-trial","80","236005","0.0-81.0-0.0","","","","","[0,1]","1","1","528.0999999940395","0","0","[0,1]","1","1","497.29999999701977","0","[""#955db9"",""#48a782""]","[""#5f6f81"",""#7f5d5d""]","[1440,900]","1","76","[0.43,0.367,0.513,0.251]","0","0","false","","",""
"","","","","","two-step-trial","81","238698","0.0-82.0-0.0","","","","","[0,1]","1","1","247.70000000298023","0","0","[0,1]","1","1","440.1000000089407","0","[""#955db9"",""#48a782""]","[""#5f6f81"",""#7f5d5d""]","[1440,900]","1","77","[0.426,0.365,0.523,0.279]","0","0","false","","",""
"","","","","","two-step-trial","82","241275","0.0-83.0-0.0","","","","","[0,1]","1","1","257.09999999403954","0","0","[0,1]","0","0","313.20000000298023","0","[""#955db9"",""#48a782""]","[""#5f6f81"",""#7f5d5d""]","[1440,900]","1","78","[0.411,0.377,0.525,0.29]","0","0","false","","",""
"","","","","","two-step-trial","83","244335","0.0-84.0-0.0","","","","","[0,1]","0","0","241.90000000596046","1","0","[0,1]","1","1","811.8000000119209","1","[""#955db9"",""#48a782""]","[""#5f6f81"",""#7f5d5d""]","[1440,900]","1","79","[0.413,0.36,0.538,0.31]","0","0","false","","",""
"","","","","","two-step-trial","84","247052","0.0-85.0-0.0","","","","","[0,1]","0","0","249.5","0","1","[2,3]","1","3","458.3999999910593","1","[""#955db9"",""#48a782""]","[""#5f6f81"",""#7f5d5d""]","[1440,900]","1","80","[0.394,0.383,0.524,0.282]","0","0","false","","",""
"","","","","","two-step-trial","85","249634","0.0-86.0-0.0","","","","","[0,1]","0","0","193.79999999701977","0","1","[2,3]","1","3","381.80000001192093","0","[""#955db9"",""#48a782""]","[""#5f6f81"",""#7f5d5d""]","[1440,900]","1","81","[0.361,0.391,0.524,0.269]","0","0","false","","",""
"","","","","","two-step-trial","86","252273","0.0-87.0-0.0","","","","","[0,1]","0","0","270.5","1","0","[0,1]","1","1","363.19999998807907","0","[""#955db9"",""#48a782""]","[""#5f6f81"",""#7f5d5d""]","[1440,900]","1","82","[0.354,0.377,0.535,0.274]","0","0","false","","",""
"","","","","","two-step-trial","87","254933","0.0-88.0-0.0","","","","","[0,1]","0","0","241.59999999403954","1","0","[0,1]","1","1","412.3999999910593","1","[""#955db9"",""#48a782""]","[""#5f6f81"",""#7f5d5d""]","[1440,900]","1","83","[0.353,0.363,0.504,0.307]","0","0","false","","",""
"","","","","","two-step-trial","88","257499","0.0-89.0-0.0","","","","","[0,1]","0","0","259","0","1","[2,3]","1","3","302.90000000596046","0","[""#955db9"",""#48a782""]","[""#5f6f81"",""#7f5d5d""]","[1440,900]","1","84","[0.361,0.317,0.485,0.273]","0","0","false","","",""
"","","","","","two-step-trial","89","260114","0.0-90.0-0.0","","","","","[0,1]","0","0","274","1","0","[0,1]","0","0","336.20000000298023","0","[""#955db9"",""#48a782""]","[""#5f6f81"",""#7f5d5d""]","[1440,900]","1","85","[0.295,0.332,0.47,0.26]","0","0","false","","",""
"","","","","","two-step-trial","90","262692","0.0-91.0-0.0","","","","","[0,1]","0","0","287.6000000089407","0","1","[2,3]","1","3","286.09999999403954","0","[""#955db9"",""#48a782""]","[""#5f6f81"",""#7f5d5d""]","[1440,900]","1","86","[0.287,0.344,0.46,0.32]","0","0","false","","",""
"","","","","","two-step-trial","91","265270","0.0-92.0-0.0","","","","","[0,1]","0","0","304.6000000089407","1","0","[0,1]","0","0","268.69999998807907","1","[""#955db9"",""#48a782""]","[""#5f6f81"",""#7f5d5d""]","[1440,900]","1","87","[0.278,0.373,0.46,0.351]","0","0","false","","",""
"","","","","","two-step-trial","92","267817","0.0-93.0-0.0","","","","","[0,1]","0","0","174.09999999403954","1","0","[0,1]","0","0","367.90000000596046","0","[""#955db9"",""#48a782""]","[""#5f6f81"",""#7f5d5d""]","[1440,900]","1","88","[0.277,0.355,0.459,0.358]","0","0","false","","",""
"","","","","","two-step-trial","93","270385","0.0-94.0-0.0","","","","","[0,1]","0","0","232.5","1","0","[0,1]","1","1","328.79999999701977","1","[""#955db9"",""#48a782""]","[""#5f6f81"",""#7f5d5d""]","[1440,900]","1","89","[0.264,0.395,0.47,0.338]","0","0","false","","",""
"","","","","","two-step-trial","94","272982","0.0-95.0-0.0","","","","","[0,1]","0","0","224.69999998807907","1","0","[0,1]","1","1","368","1","[""#955db9"",""#48a782""]","[""#5f6f81"",""#7f5d5d""]","[1440,900]","1","90","[0.258,0.389,0.495,0.348]","0","0","false","","",""
"","","","","","two-step-trial","95","275633","0.0-96.0-0.0","","","","","[0,1]","0","0","274","1","0","[0,1]","1","1","369.8999999910593","0","[""#955db9"",""#48a782""]","[""#5f6f81"",""#7f5d5d""]","[1440,900]","1","91","[0.325,0.363,0.524,0.356]","0","0","false","","",""
"","","","","","two-step-trial","96","278199","0.0-97.0-0.0","","","","","[0,1]","0","0","268.79999999701977","0","1","[2,3]","0","2","290","1","[""#955db9"",""#48a782""]","[""#5f6f81"",""#7f5d5d""]","[1440,900]","1","92","[0.29,0.354,0.524,0.361]","0","0","false","","",""
"","","","","","two-step-trial","97","280855","0.0-98.0-0.0","","","","","[0,1]","0","0","297.09999999403954","1","0","[0,1]","0","0","352.20000000298023","0","[""#955db9"",""#48a782""]","[""#5f6f81"",""#7f5d5d""]","[1440,900]","1","93","[0.318,0.353,0.542,0.336]","0","0","false","","",""
"","","","","","two-step-trial","98","283404","0.0-99.0-0.0","","","","","[0,1]","0","0","265.6000000089407","0","1","[2,3]","1","3","279","1","[""#955db9"",""#48a782""]","[""#5f6f81"",""#7f5d5d""]","[1440,900]","1","94","[0.329,0.367,0.542,0.302]","0","0","false","","",""
"","","","","","two-step-trial","99","286001","0.0-100.0-0.0","","","","","[0,1]","0","0","293.6000000089407","1","0","[0,1]","1","1","297","0","[""#955db9"",""#48a782""]","[""#5f6f81"",""#7f5d5d""]","[1440,900]","1","95","[0.348,0.33,0.586,0.265]","0","0","false","","",""
"","","","","","two-step-trial","100","288514","0.0-101.0-0.0","","","","","[0,1]","0","0","214.09999999403954","1","0","[0,1]","0","0","289.29999999701977","1","[""#955db9"",""#48a782""]","[""#5f6f81"",""#7f5d5d""]","[1440,900]","1","96","[0.348,0.348,0.591,0.304]","0","0","false","","",""
"","","","","","two-step-trial","101","291061","0.0-102.0-0.0","","","","","[0,1]","0","0","251.80000001192093","1","0","[0,1]","0","0","286.5","1","[""#955db9"",""#48a782""]","[""#5f6f81"",""#7f5d5d""]","[1440,900]","1","97","[0.328,0.258,0.639,0.303]","0","0","false","","",""
"","","","","","two-step-trial","102","293634","0.0-103.0-0.0","","","","","[0,1]","0","0","293.80000001192093","1","0","[0,1]","0","0","272.79999999701977","0","[""#955db9"",""#48a782""]","[""#5f6f81"",""#7f5d5d""]","[1440,900]","1","98","[0.381,0.256,0.661,0.29]","0","0","false","","",""
"","","","","","two-step-trial","103","296172","0.0-104.0-0.0","","","","","[0,1]","0","0","257.90000000596046","1","0","[0,1]","1","1","273.90000000596046","1","[""#955db9"",""#48a782""]","[""#5f6f81"",""#7f5d5d""]","[1440,900]","1","99","[0.423,0.312,0.659,0.319]","0","0","false","","",""
"","","","","","two-step-trial","104","298749","0.0-105.0-0.0","","","","","[0,1]","0","0","255.5","1","0","[0,1]","1","1","315.29999999701977","1","[""#955db9"",""#48a782""]","[""#5f6f81"",""#7f5d5d""]","[1440,900]","1","100","[0.419,0.326,0.615,0.332]","0","0","false","","",""
"","","","","","two-step-trial","105","301286","0.0-106.0-0.0","","","","","[0,1]","0","0","241.79999999701977","1","0","[0,1]","1","1","287.90000000596046","0","[""#955db9"",""#48a782""]","[""#5f6f81"",""#7f5d5d""]","[1440,900]","1","101","[0.406,0.305,0.562,0.356]","0","0","false","","",""
"","","","","","two-step-trial","106","303988","0.0-107.0-0.0","","","","","[0,1]","0","0","370.19999998807907","0","1","[2,3]","1","3","324.20000000298023","0","[""#955db9"",""#48a782""]","[""#5f6f81"",""#7f5d5d""]","[1440,900]","1","102","[0.412,0.303,0.532,0.328]","0","0","false","","",""
"","","","","","two-step-trial","107","306596","0.0-108.0-0.0","","","","","[0,1]","0","0","236.59999999403954","1","0","[0,1]","0","0","365.5","1","[""#955db9"",""#48a782""]","[""#5f6f81"",""#7f5d5d""]","[1440,900]","1","103","[0.399,0.326,0.531,0.314]","0","0","false","","",""
"","","","","","two-step-trial","108","309249","0.0-109.0-0.0","","","","","[0,1]","0","0","275.20000000298023","0","1","[2,3]","0","2","370.59999999403954","1","[""#955db9"",""#48a782""]","[""#5f6f81"",""#7f5d5d""]","[1440,900]","1","104","[0.398,0.313,0.576,0.303]","0","0","false","","",""
"","","","","","two-step-trial","109","311898","0.0-110.0-0.0","","","","","[0,1]","0","0","283.79999999701977","0","1","[2,3]","0","2","354.40000000596046","1","[""#955db9"",""#48a782""]","[""#5f6f81"",""#7f5d5d""]","[1440,900]","1","105","[0.41,0.34,0.593,0.316]","0","0","false","","",""
"","","","","","two-step-trial","110","314464","0.0-111.0-0.0","","","","","[0,1]","0","0","279","1","0","[0,1]","0","0","279.1000000089407","0","[""#955db9"",""#48a782""]","[""#5f6f81"",""#7f5d5d""]","[1440,900]","1","106","[0.402,0.333,0.57,0.322]","0","0","false","","",""
"","","","","","two-step-trial","111","317055","0.0-112.0-0.0","","","","","[0,1]","0","0","260.90000000596046","1","0","[0,1]","1","1","323.5","0","[""#955db9"",""#48a782""]","[""#5f6f81"",""#7f5d5d""]","[1440,900]","1","107","[0.408,0.274,0.566,0.316]","0","0","false","","",""
"","","","","","two-step-trial","112","319414","0.0-113.0-0.0","","","","","[0,1]","0","0","45.099999994039536","1","0","[0,1]","1","1","312.19999998807907","0","[""#955db9"",""#48a782""]","[""#5f6f81"",""#7f5d5d""]","[1440,900]","1","108","[0.426,0.262,0.552,0.283]","0","0","false","","",""
"","","","","","two-step-trial","113","321970","0.0-114.0-0.0","","","","","[0,1]","0","0","200.79999999701977","1","0","[0,1]","0","0","350.5","1","[""#955db9"",""#48a782""]","[""#5f6f81"",""#7f5d5d""]","[1440,900]","1","109","[0.4,0.265,0.503,0.284]","0","0","false","","",""
"","","","","","two-step-trial","114","324524","0.0-115.0-0.0","","","","","[0,1]","0","0","241.90000000596046","1","0","[0,1]","0","0","305.20000000298023","0","[""#955db9"",""#48a782""]","[""#5f6f81"",""#7f5d5d""]","[1440,900]","1","110","[0.389,0.286,0.517,0.318]","0","0","false","","",""
"","","","","","two-step-trial","115","327067","0.0-116.0-0.0","","","","","[0,1]","0","0","237.8999999910593","1","0","[0,1]","0","0","300.6000000089407","0","[""#955db9"",""#48a782""]","[""#5f6f81"",""#7f5d5d""]","[1440,900]","1","111","[0.389,0.289,0.505,0.348]","0","0","false","","",""
"","","","","","two-step-trial","116","329717","0.0-117.0-0.0","","","","","[0,1]","0","0","256.40000000596046","1","0","[0,1]","1","1","386.29999999701977","0","[""#955db9"",""#48a782""]","[""#5f6f81"",""#7f5d5d""]","[1440,900]","1","112","[0.387,0.265,0.506,0.329]","0","0","false","","",""
"","","","","","two-step-trial","117","332085","0.0-118.0-0.0","","","","","[0,1]","0","0","84.3999999910593","1","0","[0,1]","0","0","277.79999999701977","1","[""#955db9"",""#48a782""]","[""#5f6f81"",""#7f5d5d""]","[1440,900]","1","113","[0.384,0.256,0.524,0.353]","0","0","false","","",""
"","","","","","two-step-trial","118","334984","0.0-119.0-0.0","","","","","[0,1]","0","0","236.69999998807907","0","1","[2,3]","0","2","660.4000000059605","1","[""#955db9"",""#48a782""]","[""#5f6f81"",""#7f5d5d""]","[1440,900]","1","114","[0.367,0.273,0.512,0.348]","0","0","false","","",""
"","","","","","two-step-trial","119","337921","0.0-120.0-0.0","","","","","[0,1]","0","0","568.7999999970198","1","0","[0,1]","0","0","360.40000000596046","0","[""#955db9"",""#48a782""]","[""#5f6f81"",""#7f5d5d""]","[1440,900]","1","115","[0.323,0.276,0.502,0.358]","0","0","false","","",""
"","","","","","two-step-trial","120","340784","0.0-121.0-0.0","","","","","[0,1]","0","0","303.90000000596046","1","0","[0,1]","0","0","551.2000000029802","0","[""#955db9"",""#48a782""]","[""#5f6f81"",""#7f5d5d""]","[1440,900]","1","116","[0.327,0.301,0.482,0.366]","0","0","false","","",""
"","","","","","two-step-trial","121","343631","0.0-122.0-0.0","","","","","[0,1]","1","1","241.79999999701977","0","0","[0,1]","0","0","598.6000000089407","0","[""#955db9"",""#48a782""]","[""#5f6f81"",""#7f5d5d""]","[1440,900]","1","117","[0.356,0.324,0.447,0.405]","0","0","false","","",""
"","","","","","two-step-trial","122","346737","0.0-123.0-0.0","","","","","[0,1]","1","1","273.3999999910593","0","0","[0,1]","1","1","824.2000000029802","0","[""#955db9"",""#48a782""]","[""#5f6f81"",""#7f5d5d""]","[1440,900]","1","118","[0.346,0.346,0.451,0.456]","0","0","false","","",""
"","","","","","two-step-trial","123","349296","0.0-124.0-0.0","","","","","[0,1]","1","1","154.5","1","1","[2,3]","0","2","399.19999998807907","1","[""#955db9"",""#48a782""]","[""#5f6f81"",""#7f5d5d""]","[1440,900]","1","119","[0.307,0.341,0.511,0.496]","0","0","false","","",""
"","","","","","two-step-trial","124","351902","0.0-125.0-0.0","","","","","[0,1]","1","1","252.29999999701977","1","1","[2,3]","0","2","347.3999999910593","1","[""#955db9"",""#48a782""]","[""#5f6f81"",""#7f5d5d""]","[1440,900]","1","120","[0.301,0.307,0.523,0.5]","0","0","false","","",""
"","","","","","two-step-trial","125","354388","0.0-126.0-0.0","","","","","[0,1]","1","1","196","1","1","[2,3]","0","2","288.20000000298023","0","[""#955db9"",""#48a782""]","[""#5f6f81"",""#7f5d5d""]","[1440,900]","1","121","[0.288,0.297,0.519,0.491]","0","0","false","","",""
"","","","","","two-step-trial","126","357560","0.0-127.0-0.0","","","","","[0,1]","1","1","243","0","0","[0,1]","0","0","919.6000000089407","0","[""#955db9"",""#48a782""]","[""#5f6f81"",""#7f5d5d""]","[1440,900]","1","122","[0.275,0.313,0.525,0.507]","0","0","false","","",""
"","","","","","two-step-trial","127","360277","0.0-128.0-0.0","","","","","[0,1]","1","1","248.8999999910593","1","1","[2,3]","0","2","460.29999999701977","0","[""#955db9"",""#48a782""]","[""#5f6f81"",""#7f5d5d""]","[1440,900]","1","123","[0.288,0.279,0.473,0.464]","0","0","false","","",""
"","","","","","two-step-trial","128","363024","0.0-129.0-0.0","","","","","[0,1]","1","1","254.70000000298023","1","1","[2,3]","0","2","489","0","[""#955db9"",""#48a782""]","[""#5f6f81"",""#7f5d5d""]","[1440,900]","1","124","[0.287,0.296,0.496,0.443]","0","0","false","","",""
"","","","","","two-step-trial","129","365747","0.0-130.0-0.0","","","","","[0,1]","1","1","214.59999999403954","0","0","[0,1]","0","0","503.3999999910593","1","[""#955db9"",""#48a782""]","[""#5f6f81"",""#7f5d5d""]","[1440,900]","1","125","[0.26,0.276,0.477,0.451]","0","0","false","","",""
"","","","","","two-step-trial","130","368752","0.0-131.0-0.0","","","","","[0,1]","1","1","231.30000001192093","1","1","[2,3]","1","3","768.5","0","[""#955db9"",""#48a782""]","[""#5f6f81"",""#7f5d5d""]","[1440,900]","1","126","[0.283,0.285,0.494,0.477]","0","0","false","","",""
"","","","","","two-step-trial","131","371327","0.0-132.0-0.0","","","","","[0,1]","1","1","275.70000000298023","1","1","[2,3]","0","2","292.3999999910593","0","[""#955db9"",""#48a782""]","[""#5f6f81"",""#7f5d5d""]","[1440,900]","1","127","[0.285,0.251,0.493,0.518]","0","0","false","","",""
"","","","","","two-step-trial","132","373815","0.0-133.0-0.0","","","","","[0,1]","0","0","201","1","0","[0,1]","0","0","281.90000000596046","1","[""#955db9"",""#48a782""]","[""#5f6f81"",""#7f5d5d""]","[1440,900]","1","128","[0.285,0.278,0.495,0.479]","0","0","false","","",""
"","","","","","two-step-trial","133","376364","0.0-134.0-0.0","","","","","[0,1]","0","0","89.29999999701977","1","0","[0,1]","0","0","453.29999999701977","0","[""#955db9"",""#48a782""]","[""#5f6f81"",""#7f5d5d""]","[1440,900]","1","129","[0.304,0.316,0.486,0.459]","0","0","false","","",""
"","","","","","two-step-trial","134","378916","0.0-135.0-0.0","","","","","[0,1]","0","0","339.8999999910593","1","0","[0,1]","1","1","208.5","1","[""#955db9"",""#48a782""]","[""#5f6f81"",""#7f5d5d""]","[1440,900]","1","130","[0.279,0.291,0.485,0.452]","0","0","false","","",""
"","","","","","two-step-trial","135","381472","0.0-136.0-0.0","","","","","[0,1]","0","0","245.90000000596046","1","0","[0,1]","1","1","302.6000000089407","0","[""#955db9"",""#48a782""]","[""#5f6f81"",""#7f5d5d""]","[1440,900]","1","131","[0.257,0.293,0.476,0.442]","0","0","false","","",""
"","","","","","two-step-trial","136","384032","0.0-137.0-0.0","","","","","[0,1]","0","0","289.70000000298023","0","1","[2,3]","0","2","267.70000000298023","0","[""#955db9"",""#48a782""]","[""#5f6f81"",""#7f5d5d""]","[1440,900]","1","132","[0.267,0.335,0.408,0.456]","0","0","false","","",""
"","","","","","two-step-trial","137","386603","0.0-138.0-0.0","","","","","[0,1]","0","0","296","1","0","[0,1]","0","0","270.29999999701977","0","[""#955db9"",""#48a782""]","[""#5f6f81"",""#7f5d5d""]","[1440,900]","1","133","[0.254,0.359,0.444,0.42]","0","0","false","","",""
"","","","","","two-step-trial","138","389189","0.0-139.0-0.0","","","","","[0,1]","0","0","285.8999999910593","0","1","[2,3]","0","2","292.09999999403954","1","[""#955db9"",""#48a782""]","[""#5f6f81"",""#7f5d5d""]","[1440,900]","1","134","[0.265,0.371,0.443,0.419]","0","0","false","","",""
"","","","","","two-step-trial","139","391754","0.0-140.0-0.0","","","","","[0,1]","0","0","283","0","1","[2,3]","0","2","275.29999999701977","0","[""#955db9"",""#48a782""]","[""#5f6f81"",""#7f5d5d""]","[1440,900]","1","135","[0.272,0.34,0.465,0.386]","0","0","false","","",""
"","","","","","two-step-trial","140","394169","0.0-141.0-0.0","","","","","[0,1]","0","0","148","1","0","[0,1]","1","1","263.69999998807907","0","[""#955db9"",""#48a782""]","[""#5f6f81"",""#7f5d5d""]","[1440,900]","1","136","[0.291,0.34,0.503,0.372]","0","0","false","","",""
"","","","","","two-step-trial","141","396647","0.0-142.0-0.0","","","","","[0,1]","0","0","208.6000000089407","1","0","[0,1]","0","0","261","1","[""#955db9"",""#48a782""]","[""#5f6f81"",""#7f5d5d""]","[1440,900]","1","137","[0.25,0.307,0.498,0.357]","0","0","false","","",""
"","","","","","two-step-trial","142","399262","0.0-143.0-0.0","","","","","[0,1]","0","0","244.79999999701977","1","0","[0,1]","0","0","364.8999999910593","0","[""#955db9"",""#48a782""]","[""#5f6f81"",""#7f5d5d""]","[1440,900]","1","138","[0.265,0.293,0.462,0.319]","0","0","false","","",""
"","","","","","two-step-trial","143","401755","0.0-144.0-0.0","","","","","[0,1]","0","0","209.09999999403954","1","0","[0,1]","0","0","276","1","[""#955db9"",""#48a782""]","[""#5f6f81"",""#7f5d5d""]","[1440,900]","1","139","[0.268,0.317,0.494,0.325]","0","0","false","","",""
"","","","","","two-step-trial","144","404338","0.0-145.0-0.0","","","","","[0,1]","0","0","305.70000000298023","0","1","[2,3]","1","3","271.79999999701977","0","[""#955db9"",""#48a782""]","[""#5f6f81"",""#7f5d5d""]","[1440,900]","1","140","[0.276,0.319,0.471,0.343]","0","0","false","","",""
"","","","","","two-step-trial","145","406750","0.0-146.0-0.0","","","","","[0,1]","0","0","120.19999998807907","1","0","[0,1]","0","0","286.30000001192093","0","[""#955db9"",""#48a782""]","[""#5f6f81"",""#7f5d5d""]","[1440,900]","1","141","[0.261,0.318,0.465,0.338]","0","0","false","","",""
"","","","","","two-step-trial","146","409405","0.0-147.0-0.0","","","","","[0,1]","0","0","264.79999999701977","1","0","[0,1]","0","0","383.70000000298023","0","[""#955db9"",""#48a782""]","[""#5f6f81"",""#7f5d5d""]","[1440,900]","1","142","[0.269,0.269,0.465,0.359]","0","0","false","","",""
"","","","","","two-step-trial","147","412244","0.0-148.0-0.0","","","","","[0,1]","0","0","231.59999999403954","0","1","[2,3]","1","3","600.0999999940395","0","[""#955db9"",""#48a782""]","[""#5f6f81"",""#7f5d5d""]","[1440,900]","1","143","[0.288,0.255,0.464,0.364]","0","0","false","","",""
"","","","","","two-step-trial","148","414754","0.0-149.0-0.0","","","","","[0,1]","0","0","238.90000000596046","0","1","[2,3]","0","2","266.5","0","[""#955db9"",""#48a782""]","[""#5f6f81"",""#7f5d5d""]","[1440,900]","1","144","[0.311,0.284,0.439,0.335]","0","0","false","","",""
"","","","","","two-step-trial","149","417287","0.0-150.0-0.0","","","","","[0,1]","0","0","215.70000000298023","1","0","[0,1]","1","1","310.59999999403954","0","[""#955db9"",""#48a782""]","[""#5f6f81"",""#7f5d5d""]","[1440,900]","1","145","[0.291,0.284,0.413,0.345]","0","0","false","","",""
"","","","","","two-step-trial","150","419824","0.0-151.0-0.0","","","","","[0,1]","0","0","242.90000000596046","1","0","[0,1]","0","0","289.20000000298023","0","[""#955db9"",""#48a782""]","[""#5f6f81"",""#7f5d5d""]","[1440,900]","1","146","[0.289,0.292,0.421,0.344]","0","0","false","","",""
"","","","","","two-step-trial","151","422306","0.0-152.0-0.0","","","","","[0,1]","0","0","230.5","1","0","[0,1]","1","1","241.29999999701977","1","[""#955db9"",""#48a782""]","[""#5f6f81"",""#7f5d5d""]","[1440,900]","1","147","[0.299,0.296,0.457,0.356]","0","0","false","","",""
"","","","","","two-step-trial","152","424902","0.0-153.0-0.0","","","","","[0,1]","0","0","315.69999998807907","0","1","[2,3]","1","3","274.59999999403954","0","[""#955db9"",""#48a782""]","[""#5f6f81"",""#7f5d5d""]","[1440,900]","1","148","[0.264,0.313,0.451,0.366]","0","0","false","","",""
"","","","","","two-step-trial","153","427365","0.0-154.0-0.0","","","","","[0,1]","0","0","150","1","0","[0,1]","0","0","310.69999998807907","0","[""#955db9"",""#48a782""]","[""#5f6f81"",""#7f5d5d""]","[1440,900]","1","149","[0.272,0.36,0.455,0.385]","0","0","false","","",""
"","","","","","two-step-trial","154","429871","0.0-155.0-0.0","","","","","[0,1]","0","0","320.5","1","0","[0,1]","1","1","180.5","0","[""#955db9"",""#48a782""]","[""#5f6f81"",""#7f5d5d""]","[1440,900]","1","150","[0.282,0.392,0.477,0.39]","0","0","false","","",""
"","","","","","two-step-instructions","155","437979","0.0-156.0","8107.29999999702","","","[{""page_index"":0,""viewing_time"":8107.20000000298}]","","","","","","","","","","","","","","","","","","","","","","",""
"","","","","","two-step-comprehension","156","442746","0.0-157.0","4763.899999991059","","","","","","","","","","","","","","","","","","","","","","","","[""green"",""purple""]","2","[{""event"":""fullscreenenter"",""trial"":1,""time"":1936}]"
