"success","timeout","failed_images","failed_audio","failed_video","trial_type","trial_index","time_elapsed","internal_node_id","rt","stimulus","response","view_history","state_1_ids","state_1_key","state_1_choice","state_1_rt","transition","state","state_2_ids","state_2_key","state_2_choice","state_2_rt","outcome","rocket_colors","planet_colors","screen_resolution","minimum_resolution","trial","drifts","drift_ix","browser_interactions","missing","responses","num_errors","interactions"
"true","false","[]","[]","[]","preload","0","67","0.0-0.0","","","","","","","","","","","","","","","","","","","","","","","","","","",""
"true","","","","","fullscreen","1","2784","0.0-1.0","","","","","","","","","","","","","","","","","","","","","","","","","","",""
"","","","","","html-keyboard-response","2","5384","0.0-2.0","2598.0999999046326","<p>You are starting a demo of the <b>two-step task.</b></p><p>To see the instructions, press the ""1"" key. To skip them, press the ""2"" key.</p>","2","","","","","","","","","","","","","","","","","","","","","","","",""
"","","","","","two-step-instructions","3","9133","0.0-4.0","3747.6999999284744","","","[{""page_index"":0,""viewing_time"":1654},{""page_index"":1,""viewing_time"":1196.6999999284744},{""page_index"":2,""viewing_time"":896.5}]","","","","","","","","","","","","","","","","","","","","","","",""
"","","","","","two-step-trial","4","12926","0.0-5.0-0.0","","","","","[0,1]","0","0","917.5","0","1","[2,3]","0","2","866.5999999046326","1","[""#48a782"",""#955db9""]","[""#5f6f81"",""#7f5d5d""]","[1440,900]","1","1","[0.44,0.385,0.62,0.421]","1","0","false","","",""
"","","","","","two-step-trial","5","16229","0.0-6.0-0.0","","","","","[0,1]","0","0","388.60000002384186","1","0","[0,1]","0","0","904.3999999761581","1","[""#48a782"",""#955db9""]","[""#5f6f81"",""#7f5d5d""]","[1440,900]","1","2","[0.427,0.383,0.623,0.388]","1","0","false","","",""
"","","","","","two-step-trial","6","19599","0.0-7.0-0.0","","","","","[0,1]","0","0","617.3000000715256","1","0","[0,1]","0","0","745.2000000476837","0","[""#48a782"",""#955db9""]","[""#5f6f81"",""#7f5d5d""]","[1440,900]","1","3","[0.366,0.399,0.638,0.394]","1","0","false","","",""
"","","","","","two-step-trial","7","22251","0.0-8.0-0.0","","","","","[0,1]","0","0","228.20000004768372","1","0","[0,1]","1","1","415.39999997615814","1","[""#48a782"",""#955db9""]","[""#5f6f81"",""#7f5d5d""]","[1440,900]","1","4","[0.352,0.371,0.644,0.424]","1","0","false","","",""
"","","","","","two-step-trial","8","24941","0.0-9.0-0.0","","","","","[0,1]","0","0","339.60000002384186","1","0","[0,1]","0","0","344.39999997615814","0","[""#48a782"",""#955db9""]","[""#5f6f81"",""#7f5d5d""]","[1440,900]","1","5","[0.387,0.418,0.671,0.445]","1","0","false","","",""
"","","","","","two-step-trial","9","27407","0.0-10.0-0.0","","","","","[0,1]","0","0","196.20000004768372","1","0","[0,1]","1","1","262.10000002384186","1","[""#48a782"",""#955db9""]","[""#5f6f81"",""#7f5d5d""]","[1440,900]","1","6","[0.376,0.44,0.655,0.477]","1","0","false","","",""
"","","","","","two-step-trial","10","29957","0.0-11.0-0.0","","","","","[0,1]","0","0","279.39999997615814","0","1","[2,3]","1","3","262.3000000715256","0","[""#48a782"",""#955db9""]","[""#5f6f81"",""#7f5d5d""]","[1440,900]","1","7","[0.376,0.46,0.674,0.453]","1","0","false","","",""
"","","","","","two-step-trial","11","32825","0.0-12.0-0.0","","","","","[0,1]","0","0","396.89999997615814","1","0","[0,1]","1","1","464","0","[""#48a782"",""#955db9""]","[""#5f6f81"",""#7f5d5d""]","[1440,900]","1","8","[0.37,0.476,0.645,0.47]","1","0","false","","",""
"","","","","","two-step-trial","12","36289","0.0-13.0-0.0","","","","","[0,1]","1","1","886","1","1","[2,3]","0","2","571.5999999046326","1","[""#48a782"",""#955db9""]","[""#5f6f81"",""#7f5d5d""]","[1440,900]","1","9","[0.349,0.439,0.653,0.482]","1","0","false","","",""
"","","","","","two-step-trial","13","39682","0.0-14.0-0.0","","","","","[0,1]","1","1","259.39999997615814","0","0","[0,1]","1","1","1123.8999999761581","0","[""#48a782"",""#955db9""]","[""#5f6f81"",""#7f5d5d""]","[1440,900]","1","10","[0.347,0.471,0.629,0.478]","1","0","false","","",""
"","","","","","two-step-trial","14","42253","0.0-15.0-0.0","","","","","[0,1]","1","1","190.20000004768372","0","0","[0,1]","0","0","370.2999999523163","1","[""#48a782"",""#955db9""]","[""#5f6f81"",""#7f5d5d""]","[1440,900]","1","11","[0.346,0.411,0.666,0.456]","1","0","false","","",""
"","","","","","two-step-trial","15","46036","0.0-16.0-0.0","","","","","[0,1]","1","1","341.2999999523163","1","1","[2,3]","0","2","1432.5","1","[""#48a782"",""#955db9""]","[""#5f6f81"",""#7f5d5d""]","[1440,900]","1","12","[0.371,0.413,0.638,0.405]","1","0","false","","",""
"","","","","","two-step-trial","16","48957","0.0-17.0-0.0","","","","","[0,1]","1","1","258.5","1","1","[2,3]","0","2","653.5","1","[""#48a782"",""#955db9""]","[""#5f6f81"",""#7f5d5d""]","[1440,900]","1","13","[0.354,0.425,0.641,0.388]","1","0","false","","",""
"","","","","","two-step-trial","17","52285","0.0-18.0-0.0","","","","","[0,1]","1","1","304.60000002384186","0","0","[0,1]","0","0","1017.1999999284744","0","[""#48a782"",""#955db9""]","[""#5f6f81"",""#7f5d5d""]","[1440,900]","1","14","[0.315,0.45,0.635,0.335]","1","0","false","","",""
"","","","","","two-step-trial","18","54987","0.0-19.0-0.0","","","","","[0,1]","1","1","242.19999992847443","1","1","[2,3]","0","2","451.89999997615814","1","[""#48a782"",""#955db9""]","[""#5f6f81"",""#7f5d5d""]","[1440,900]","1","15","[0.291,0.41,0.635,0.339]","1","0","false","","",""
"","","","","","two-step-trial","19","57596","0.0-20.0-0.0","","","","","[0,1]","1","1","232.89999997615814","1","1","[2,3]","0","2","368.3000000715256","0","[""#48a782"",""#955db9""]","[""#5f6f81"",""#7f5d5d""]","[1440,900]","1","16","[0.3,0.409,0.61,0.364]","1","0","false","","",""
"","","","","","two-step-trial","20","60577","0.0-21.0-0.0","","","","","[0,1]","1","1","230","0","0","[0,1]","0","0","743.5","0","[""#48a782"",""#955db9""]","[""#5f6f81"",""#7f5d5d""]","[1440,900]","1","17","[0.3,0.418,0.639,0.392]","1","0","false","","",""
"","","","","","two-step-trial","21","63138","0.0-22.0-0.0","","","","","[0,1]","1","1","242.29999995231628","1","1","[2,3]","0","2","313.59999990463257","1","[""#48a782"",""#955db9""]","[""#5f6f81"",""#7f5d5d""]","[1440,900]","1","18","[0.308,0.463,0.63,0.375]","1","0","false","","",""
"","","","","","two-step-trial","22","65700","0.0-23.0-0.0","","","","","[0,1]","1","1","175.80000007152557","1","1","[2,3]","0","2","380.5","1","[""#48a782"",""#955db9""]","[""#5f6f81"",""#7f5d5d""]","[1440,900]","1","19","[0.345,0.475,0.617,0.402]","1","0","false","","",""
"","","","","","two-step-trial","23","68357","0.0-24.0-0.0","","","","","[0,1]","1","1","204.79999995231628","1","1","[2,3]","0","2","444.2999999523163","0","[""#48a782"",""#955db9""]","[""#5f6f81"",""#7f5d5d""]","[1440,900]","1","20","[0.39,0.463,0.595,0.433]","1","0","false","","",""
"","","","","","two-step-trial","24","70806","0.0-25.0-0.0","","","","","[0,1]","1","1","121","1","1","[2,3]","0","2","317.89999997615814","1","[""#48a782"",""#955db9""]","[""#5f6f81"",""#7f5d5d""]","[1440,900]","1","21","[0.413,0.433,0.607,0.447]","1","0","false","","",""
"","","","","","two-step-trial","25","73613","0.0-26.0-0.0","","","","","[0,1]","1","1","77","0","0","[0,1]","0","0","721.7000000476837","0","[""#48a782"",""#955db9""]","[""#5f6f81"",""#7f5d5d""]","[1440,900]","1","22","[0.397,0.431,0.605,0.426]","1","0","false","","",""
"","","","","","two-step-trial","26","76573","0.0-27.0-0.0","","","","","[0,1]","1","1","509.6999999284744","1","1","[2,3]","0","2","441.3000000715256","0","[""#48a782"",""#955db9""]","[""#5f6f81"",""#7f5d5d""]","[1440,900]","1","23","[0.375,0.426,0.617,0.383]","1","0","false","","",""
"","","","","","two-step-trial","27","79178","0.0-28.0-0.0","","","","","[0,1]","1","1","275.40000009536743","1","1","[2,3]","0","2","319.7000000476837","1","[""#48a782"",""#955db9""]","[""#5f6f81"",""#7f5d5d""]","[1440,900]","1","24","[0.396,0.432,0.631,0.356]","1","0","false","","",""
"","","","","","two-step-trial","28","81734","0.0-29.0-0.0","","","","","[0,1]","1","1","129.29999995231628","1","1","[2,3]","0","2","418.2999999523163","0","[""#48a782"",""#955db9""]","[""#5f6f81"",""#7f5d5d""]","[1440,900]","1","25","[0.352,0.393,0.634,0.357]","1","0","false","","",""
"","","","","","two-step-trial","29","84225","0.0-30.0-0.0","","","","","[0,1]","1","1","200.29999995231628","1","1","[2,3]","0","2","281.60000002384186","1","[""#48a782"",""#955db9""]","[""#5f6f81"",""#7f5d5d""]","[1440,900]","1","26","[0.379,0.371,0.632,0.315]","1","0","false","","",""
"","","","","","two-step-trial","30","86731","0.0-31.0-0.0","","","","","[0,1]","1","1","162.19999992847443","1","1","[2,3]","0","2","332.2000000476837","0","[""#48a782"",""#955db9""]","[""#5f6f81"",""#7f5d5d""]","[1440,900]","1","27","[0.44,0.355,0.639,0.305]","1","0","false","","",""
"","","","","","two-step-trial","31","89668","0.0-32.0-0.0","","","","","[0,1]","1","1","287.89999997615814","0","0","[0,1]","1","1","638.5","1","[""#48a782"",""#955db9""]","[""#5f6f81"",""#7f5d5d""]","[1440,900]","1","28","[0.473,0.399,0.627,0.311]","1","0","false","","",""
"","","","","","two-step-trial","32","92323","0.0-33.0-0.0","","","","","[0,1]","1","1","214.30000007152557","0","0","[0,1]","1","1","429.8000000715256","1","[""#48a782"",""#955db9""]","[""#5f6f81"",""#7f5d5d""]","[1440,900]","1","29","[0.47,0.426,0.594,0.318]","1","0","false","","",""
"","","","","","two-step-trial","33","94976","0.0-34.0-0.0","","","","","[0,1]","0","0","285.59999990463257","1","0","[0,1]","1","1","363.2000000476837","0","[""#48a782"",""#955db9""]","[""#5f6f81"",""#7f5d5d""]","[1440,900]","1","30","[0.455,0.475,0.559,0.323]","1","0","false","","",""
"","","","","","two-step-trial","34","97570","0.0-35.0-0.0","","","","","[0,1]","0","0","253.19999992847443","1","0","[0,1]","1","1","329.7999999523163","1","[""#48a782"",""#955db9""]","[""#5f6f81"",""#7f5d5d""]","[1440,900]","1","31","[0.435,0.51,0.608,0.321]","1","0","false","","",""
"","","","","","two-step-trial","35","100170","0.0-36.0-0.0","","","","","[0,1]","0","0","167.80000007152557","1","0","[0,1]","1","1","422.5","1","[""#48a782"",""#955db9""]","[""#5f6f81"",""#7f5d5d""]","[1440,900]","1","32","[0.415,0.507,0.579,0.317]","1","0","false","","",""
"","","","","","two-step-trial","36","102567","0.0-37.0-0.0","","","","","[0,1]","0","0","45.799999952316284","1","0","[0,1]","1","1","342.90000009536743","0","[""#48a782"",""#955db9""]","[""#5f6f81"",""#7f5d5d""]","[1440,900]","1","33","[0.459,0.542,0.595,0.302]","1","0","false","","",""
"","","","","","two-step-trial","37","105660","0.0-38.0-0.0","","","","","[0,1]","0","0","856.8999999761581","1","0","[0,1]","1","1","229","0","[""#48a782"",""#955db9""]","[""#5f6f81"",""#7f5d5d""]","[1440,900]","1","34","[0.491,0.491,0.597,0.309]","1","0","false","","",""
"","","","","","two-step-trial","38","108162","0.0-39.0-0.0","","","","","[0,1]","0","0","23.399999976158142","1","0","[0,1]","1","1","473.5","1","[""#48a782"",""#955db9""]","[""#5f6f81"",""#7f5d5d""]","[1440,900]","1","35","[0.474,0.513,0.589,0.338]","1","0","false","","",""
"","","","","","two-step-trial","39","110608","0.0-40.0-0.0","","","","","[0,1]","0","0","159.5","1","0","[0,1]","1","1","282.5","0","[""#48a782"",""#955db9""]","[""#5f6f81"",""#7f5d5d""]","[1440,900]","1","36","[0.457,0.538,0.559,0.332]","1","0","false","","",""
"","","","","","two-step-trial","40","113449","0.0-41.0-0.0","","","","","[0,1]","1","1","158.59999990463257","0","0","[0,1]","1","1","671.8999999761581","0","[""#48a782"",""#955db9""]","[""#5f6f81"",""#7f5d5d""]","[1440,900]","1","37","[0.485,0.54,0.582,0.328]","1","0","false","","",""
"","","","","","two-step-trial","41","116095","0.0-42.0-0.0","","","","","[0,1]","1","1","76","1","1","[2,3]","0","2","565.8000000715256","0","[""#48a782"",""#955db9""]","[""#5f6f81"",""#7f5d5d""]","[1440,900]","1","38","[0.448,0.561,0.557,0.342]","1","0","false","","",""
"","","","","","two-step-trial","42","119552","0.0-43.0-0.0","","","","","[0,1]","0","0","344.60000002384186","0","1","[2,3]","1","3","1103.7000000476837","0","[""#48a782"",""#955db9""]","[""#5f6f81"",""#7f5d5d""]","[1440,900]","1","39","[0.401,0.544,0.587,0.37]","1","0","false","","",""
"","","","","","two-step-trial","43","122844","0.0-44.0-0.0","","","","","[0,1]","0","0","624.3999999761581","1","0","[0,1]","0","0","658.8000000715256","0","[""#48a782"",""#955db9""]","[""#5f6f81"",""#7f5d5d""]","[1440,900]","1","40","[0.404,0.536,0.602,0.375]","1","0","false","","",""
"","","","","","two-step-trial","44","126279","0.0-45.0-0.0","","","","","[0,1]","0","0","645.6000000238419","1","0","[0,1]","1","1","782.9000000953674","0","[""#48a782"",""#955db9""]","[""#5f6f81"",""#7f5d5d""]","[1440,900]","1","41","[0.396,0.535,0.6,0.41]","1","0","false","","",""
"","","","","","two-step-trial","45","129153","0.0-46.0-0.0","","","","","[0,1]","1","1","256.7000000476837","0","0","[0,1]","1","1","608.3000000715256","1","[""#48a782"",""#955db9""]","[""#5f6f81"",""#7f5d5d""]","[1440,900]","1","42","[0.406,0.554,0.6,0.432]","1","0","false","","",""
"","","","","","two-step-trial","46","132219","0.0-47.0-0.0","","","","","[0,1]","1","1","217.79999995231628","1","1","[2,3]","0","2","841.8999999761581","0","[""#48a782"",""#955db9""]","[""#5f6f81"",""#7f5d5d""]","[1440,900]","1","43","[0.381,0.564,0.612,0.443]","1","0","false","","",""
"","","","","","two-step-trial","47","134936","0.0-48.0-0.0","","","","","[0,1]","1","1","178.80000007152557","1","1","[2,3]","1","3","532.7999999523163","1","[""#48a782"",""#955db9""]","[""#5f6f81"",""#7f5d5d""]","[1440,900]","1","44","[0.375,0.564,0.659,0.454]","1","0","false","","",""
"","","","","","two-step-trial","48","137610","0.0-49.0-0.0","","","","","[0,1]","0","0","295.7000000476837","0","1","[2,3]","1","3","373.7000000476837","1","[""#48a782"",""#955db9""]","[""#5f6f81"",""#7f5d5d""]","[1440,900]","1","45","[0.37,0.592,0.676,0.446]","1","0","false","","",""
"","","","","","two-step-trial","49","140553","0.0-50.0-0.0","","","","","[0,1]","0","0","255.60000002384186","1","0","[0,1]","1","1","677.3000000715256","0","[""#48a782"",""#955db9""]","[""#5f6f81"",""#7f5d5d""]","[1440,900]","1","46","[0.369,0.571,0.682,0.419]","1","0","false","","",""
"","","","","","two-step-trial","50","143474","0.0-51.0-0.0","","","","","[0,1]","0","0","252","1","0","[0,1]","0","0","661.5","0","[""#48a782"",""#955db9""]","[""#5f6f81"",""#7f5d5d""]","[1440,900]","1","47","[0.392,0.532,0.65,0.4]","1","0","false","","",""
"","","","","","two-step-trial","51","146431","0.0-52.0-0.0","","","","","[0,1]","0","0","190.79999995231628","1","0","[0,1]","1","1","755.8999999761581","0","[""#48a782"",""#955db9""]","[""#5f6f81"",""#7f5d5d""]","[1440,900]","1","48","[0.412,0.529,0.637,0.409]","1","0","false","","",""
"","","","","","two-step-trial","52","149679","0.0-53.0-0.0","","","","","[0,1]","0","0","481.60000002384186","1","0","[0,1]","0","0","756.0999999046326","0","[""#48a782"",""#955db9""]","[""#5f6f81"",""#7f5d5d""]","[1440,900]","1","49","[0.41,0.533,0.637,0.402]","1","0","false","","",""
"","","","","","two-step-trial","53","152564","0.0-54.0-0.0","","","","","[0,1]","1","1","355.60000002384186","0","0","[0,1]","1","1","519.8999999761581","1","[""#48a782"",""#955db9""]","[""#5f6f81"",""#7f5d5d""]","[1440,900]","1","50","[0.394,0.554,0.63,0.39]","1","0","false","","",""
"","","","","","two-step-trial","54","155407","0.0-55.0-0.0","","","","","[0,1]","1","1","220.69999992847443","1","1","[2,3]","1","3","615.5","1","[""#48a782"",""#955db9""]","[""#5f6f81"",""#7f5d5d""]","[1440,900]","1","51","[0.351,0.543,0.599,0.412]","1","0","false","","",""
"","","","","","two-step-trial","55","157864","0.0-56.0-0.0","","","","","[0,1]","1","1","76.80000007152557","1","1","[2,3]","1","3","370.2000000476837","1","[""#48a782"",""#955db9""]","[""#5f6f81"",""#7f5d5d""]","[1440,900]","1","52","[0.355,0.541,0.573,0.402]","1","0","false","","",""
"","","","","","two-step-trial","56","160393","0.0-57.0-0.0","","","","","[0,1]","1","1","198.60000002384186","1","1","[2,3]","1","3","326.40000009536743","0","[""#48a782"",""#955db9""]","[""#5f6f81"",""#7f5d5d""]","[1440,900]","1","53","[0.35,0.565,0.6,0.385]","1","0","false","","",""
"","","","","","two-step-trial","57","162804","0.0-58.0-0.0","","","","","[0,1]","1","1","117.89999997615814","0","0","[0,1]","1","1","282.5","1","[""#48a782"",""#955db9""]","[""#5f6f81"",""#7f5d5d""]","[1440,900]","1","54","[0.367,0.543,0.601,0.392]","1","0","false","","",""
"","","","","","two-step-trial","58","165479","0.0-59.0-0.0","","","","","[0,1]","1","1","226.89999997615814","0","0","[0,1]","1","1","440.7000000476837","0","[""#48a782"",""#955db9""]","[""#5f6f81"",""#7f5d5d""]","[1440,900]","1","55","[0.341,0.54,0.588,0.372]","1","0","false","","",""
"","","","","","two-step-trial","59","168362","0.0-60.0-0.0","","","","","[0,1]","1","1","81.90000009536743","0","0","[0,1]","1","1","790.7000000476837","0","[""#48a782"",""#955db9""]","[""#5f6f81"",""#7f5d5d""]","[1440,900]","1","56","[0.388,0.584,0.641,0.394]","1","0","false","","",""
"","","","","","two-step-trial","60","171041","0.0-61.0-0.0","","","","","[0,1]","1","1","253.59999990463257","0","0","[0,1]","0","0","414.10000002384186","0","[""#48a782"",""#955db9""]","[""#5f6f81"",""#7f5d5d""]","[1440,900]","1","57","[0.373,0.597,0.649,0.355]","1","0","false","","",""
"","","","","","two-step-trial","61","173786","0.0-62.0-0.0","","","","","[0,1]","1","1","320.2000000476837","1","1","[2,3]","1","3","415.39999997615814","0","[""#48a782"",""#955db9""]","[""#5f6f81"",""#7f5d5d""]","[1440,900]","1","58","[0.383,0.601,0.627,0.333]","1","0","false","","",""
"","","","","","two-step-trial","62","176365","0.0-63.0-0.0","","","","","[0,1]","1","1","266.39999997615814","1","1","[2,3]","0","2","306.7000000476837","1","[""#48a782"",""#955db9""]","[""#5f6f81"",""#7f5d5d""]","[1440,900]","1","59","[0.401,0.574,0.656,0.323]","1","0","false","","",""
"","","","","","two-step-trial","63","179032","0.0-64.0-0.0","","","","","[0,1]","1","1","331.89999997615814","1","1","[2,3]","0","2","325.3000000715256","0","[""#48a782"",""#955db9""]","[""#5f6f81"",""#7f5d5d""]","[1440,900]","1","60","[0.433,0.567,0.64,0.284]","1","0","false","","",""
"","","","","","two-step-trial","64","182271","0.0-65.0-0.0","","","","","[0,1]","1","1","375.5","0","0","[0,1]","1","1","855.3000000715256","1","[""#48a782"",""#955db9""]","[""#5f6f81"",""#7f5d5d""]","[1440,900]","1","61","[0.443,0.536,0.633,0.265]","1","0","false","","",""
"","","","","","two-step-trial","65","185128","0.0-66.0-0.0","","","","","[0,1]","1","1","170.69999992847443","1","1","[2,3]","0","2","677","1","[""#48a782"",""#955db9""]","[""#5f6f81"",""#7f5d5d""]","[1440,900]","1","62","[0.42,0.521,0.591,0.279]","1","0","false","","",""
"","","","","","two-step-trial","66","187727","0.0-67.0-0.0","","","","","[0,1]","1","1","204.39999997615814","1","1","[2,3]","0","2","386.60000002384186","1","[""#48a782"",""#955db9""]","[""#5f6f81"",""#7f5d5d""]","[1440,900]","1","63","[0.392,0.519,0.612,0.319]","1","0","false","","",""
"","","","","","two-step-trial","67","190442","0.0-68.0-0.0","","","","","[0,1]","1","1","323.8000000715256","1","1","[2,3]","0","2","382.60000002384186","1","[""#48a782"",""#955db9""]","[""#5f6f81"",""#7f5d5d""]","[1440,900]","1","64","[0.354,0.493,0.612,0.332]","1","0","false","","",""
"","","","","","two-step-trial","68","192977","0.0-69.0-0.0","","","","","[0,1]","1","1","184.10000002384186","1","1","[2,3]","0","2","343.2000000476837","1","[""#48a782"",""#955db9""]","[""#5f6f81"",""#7f5d5d""]","[1440,900]","1","65","[0.379,0.495,0.568,0.327]","1","0","false","","",""
"","","","","","two-step-trial","69","195558","0.0-70.0-0.0","","","","","[0,1]","1","1","247.10000002384186","1","1","[2,3]","0","2","327","1","[""#48a782"",""#955db9""]","[""#5f6f81"",""#7f5d5d""]","[1440,900]","1","66","[0.383,0.497,0.601,0.305]","1","0","false","","",""
"","","","","","two-step-trial","70","198121","0.0-71.0-0.0","","","","","[0,1]","1","1","190.5","1","1","[2,3]","0","2","367.60000002384186","1","[""#48a782"",""#955db9""]","[""#5f6f81"",""#7f5d5d""]","[1440,900]","1","67","[0.425,0.523,0.539,0.345]","1","0","false","","",""
"","","","","","two-step-trial","71","200791","0.0-72.0-0.0","","","","","[0,1]","1","1","182.60000002384186","0","0","[0,1]","1","1","480.90000009536743","0","[""#48a782"",""#955db9""]","[""#5f6f81"",""#7f5d5d""]","[1440,900]","1","68","[0.432,0.482,0.523,0.353]","1","0","false","","",""
"","","","","","two-step-trial","72","203559","0.0-73.0-0.0","","","","","[0,1]","1","1","123.89999997615814","0","0","[0,1]","0","0","632.6999999284744","1","[""#48a782"",""#955db9""]","[""#5f6f81"",""#7f5d5d""]","[1440,900]","1","69","[0.457,0.505,0.515,0.343]","1","0","false","","",""
"","","","","","two-step-trial","73","206394","0.0-74.0-0.0","","","","","[0,1]","1","1","175.5","0","0","[0,1]","0","0","648.8000000715256","0","[""#48a782"",""#955db9""]","[""#5f6f81"",""#7f5d5d""]","[1440,900]","1","70","[0.451,0.526,0.491,0.303]","1","0","false","","",""
"","","","","","two-step-trial","74","209111","0.0-75.0-0.0","","","","","[0,1]","1","1","234.39999997615814","1","1","[2,3]","0","2","473.89999997615814","1","[""#48a782"",""#955db9""]","[""#5f6f81"",""#7f5d5d""]","[1440,900]","1","71","[0.425,0.552,0.478,0.262]","1","0","false","","",""
"","","","","","two-step-trial","75","211664","0.0-76.0-0.0","","","","","[0,1]","1","1","194.39999997615814","1","1","[2,3]","0","2","349.60000002384186","1","[""#48a782"",""#955db9""]","[""#5f6f81"",""#7f5d5d""]","[1440,900]","1","72","[0.434,0.518,0.459,0.266]","1","0","false","","",""
"","","","","","two-step-trial","76","214244","0.0-77.0-0.0","","","","","[0,1]","1","1","170.19999992847443","1","1","[2,3]","0","2","401.89999997615814","0","[""#48a782"",""#955db9""]","[""#5f6f81"",""#7f5d5d""]","[1440,900]","1","73","[0.434,0.507,0.435,0.282]","1","0","false","","",""
"","","","","","two-step-trial","77","216794","0.0-78.0-0.0","","","","","[0,1]","1","1","118.89999997615814","1","1","[2,3]","0","2","425.2999999523163","0","[""#48a782"",""#955db9""]","[""#5f6f81"",""#7f5d5d""]","[1440,900]","1","74","[0.474,0.468,0.425,0.256]","1","0","false","","",""
"","","","","","two-step-trial","78","219272","0.0-79.0-0.0","","","","","[0,1]","1","1","43.799999952316284","1","1","[2,3]","0","2","429.90000009536743","0","[""#48a782"",""#955db9""]","[""#5f6f81"",""#7f5d5d""]","[1440,900]","1","75","[0.46,0.495,0.398,0.253]","1","0","false","","",""
"","","","","","two-step-instructions","79","220612","0.0-80.0","1338.6999999284744","","","[{""page_index"":0,""viewing_time"":260.89999997615814},{""page_index"":1,""viewing_time"":1077.6999999284744}]","","","","","","","","","","","","","","","","","","","","","","",""
"","","","","","two-step-trial","80","223996","0.0-81.0-0.0","","","","","[0,1]","0","0","800.6000000238419","1","0","[0,1]","0","0","574.5999999046326","1","[""#48a782"",""#955db9""]","[""#5f6f81"",""#7f5d5d""]","[1440,900]","1","76","[0.432,0.494,0.438,0.256]","1","0","false","","",""
"","","","","","two-step-trial","81","226940","0.0-82.0-0.0","","","","","[0,1]","0","0","365.09999990463257","1","0","[0,1]","0","0","572.5","1","[""#48a782"",""#955db9""]","[""#5f6f81"",""#7f5d5d""]","[1440,900]","1","77","[0.461,0.493,0.446,0.27]","1","0","false","","",""
"","","","","","two-step-trial","82","229715","0.0-83.0-0.0","","","","","[0,1]","0","0","288","1","0","[0,1]","0","0","477.7999999523163","1","[""#48a782"",""#955db9""]","[""#5f6f81"",""#7f5d5d""]","[1440,900]","1","78","[0.514,0.513,0.473,0.268]","1","0","false","","",""
"","","","","","two-step-trial","83","232341","0.0-84.0-0.0","","","","","[0,1]","0","0","215","1","0","[0,1]","0","0","404.10000002384186","0","[""#48a782"",""#955db9""]","[""#5f6f81"",""#7f5d5d""]","[1440,900]","1","79","[0.504,0.552,0.491,0.291]","1","0","false","","",""
"","","","","","two-step-trial","84","235061","0.0-85.0-0.0","","","","","[0,1]","0","0","154.29999995231628","0","1","[2,3]","0","2","559.0999999046326","1","[""#48a782"",""#955db9""]","[""#5f6f81"",""#7f5d5d""]","[1440,900]","1","80","[0.513,0.538,0.46,0.295]","1","0","false","","",""
"","","","","","two-step-trial","85","237864","0.0-86.0-0.0","","","","","[0,1]","0","0","286.90000009536743","1","0","[0,1]","0","0","508","1","[""#48a782"",""#955db9""]","[""#5f6f81"",""#7f5d5d""]","[1440,900]","1","81","[0.523,0.491,0.47,0.326]","1","0","false","","",""
"","","","","","two-step-trial","86","240394","0.0-87.0-0.0","","","","","[0,1]","0","0","69","0","1","[2,3]","0","2","450.8000000715256","0","[""#48a782"",""#955db9""]","[""#5f6f81"",""#7f5d5d""]","[1440,900]","1","82","[0.525,0.548,0.454,0.36]","1","0","false","","",""
"","","","","","two-step-trial","87","242956","0.0-88.0-0.0","","","","","[0,1]","0","0","108.69999992847443","1","0","[0,1]","0","0","443","0","[""#48a782"",""#955db9""]","[""#5f6f81"",""#7f5d5d""]","[1440,900]","1","83","[0.538,0.579,0.452,0.325]","1","0","false","","",""
"","","","","","two-step-trial","88","245583","0.0-89.0-0.0","","","","","[0,1]","0","0","180.89999997615814","1","0","[0,1]","0","0","434","1","[""#48a782"",""#955db9""]","[""#5f6f81"",""#7f5d5d""]","[1440,900]","1","84","[0.524,0.64,0.439,0.371]","1","0","false","","",""
"","","","","","two-step-trial","89","248155","0.0-90.0-0.0","","","","","[0,1]","0","0","139","1","0","[0,1]","0","0","423.39999997615814","0","[""#48a782"",""#955db9""]","[""#5f6f81"",""#7f5d5d""]","[1440,900]","1","85","[0.524,0.637,0.455,0.377]","1","0","false","","",""
"","","","","","two-step-trial","90","250735","0.0-91.0-0.0","","","","","[0,1]","0","0","157.20000004768372","0","1","[2,3]","1","3","414.2000000476837","1","[""#48a782"",""#955db9""]","[""#5f6f81"",""#7f5d5d""]","[1440,900]","1","86","[0.535,0.666,0.471,0.392]","1","0","false","","",""
"","","","","","two-step-trial","91","253563","0.0-92.0-0.0","","","","","[0,1]","0","0","268.2000000476837","1","0","[0,1]","0","0","548.5","0","[""#48a782"",""#955db9""]","[""#5f6f81"",""#7f5d5d""]","[1440,900]","1","87","[0.504,0.695,0.423,0.387]","1","0","false","","",""
"","","","","","two-step-trial","92","256171","0.0-93.0-0.0","","","","","[0,1]","0","0","180.79999995231628","0","1","[2,3]","1","3","417","0","[""#48a782"",""#955db9""]","[""#5f6f81"",""#7f5d5d""]","[1440,900]","1","88","[0.485,0.667,0.458,0.39]","1","0","false","","",""
"","","","","","two-step-trial","93","258829","0.0-94.0-0.0","","","","","[0,1]","0","0","232.09999990463257","1","0","[0,1]","0","0","416.60000002384186","1","[""#48a782"",""#955db9""]","[""#5f6f81"",""#7f5d5d""]","[1440,900]","1","89","[0.47,0.661,0.502,0.408]","1","0","false","","",""
"","","","","","two-step-trial","94","261468","0.0-95.0-0.0","","","","","[0,1]","0","0","230.70000004768372","1","0","[0,1]","0","0","397.10000002384186","1","[""#48a782"",""#955db9""]","[""#5f6f81"",""#7f5d5d""]","[1440,900]","1","90","[0.46,0.678,0.464,0.349]","1","0","false","","",""
"","","","","","two-step-trial","95","264105","0.0-96.0-0.0","","","","","[0,1]","0","0","280.7000000476837","1","0","[0,1]","0","0","348.3000000715256","0","[""#48a782"",""#955db9""]","[""#5f6f81"",""#7f5d5d""]","[1440,900]","1","91","[0.46,0.655,0.459,0.313]","1","0","false","","",""
"","","","","","two-step-trial","96","266774","0.0-97.0-0.0","","","","","[0,1]","0","0","273.7999999523163","1","0","[0,1]","1","1","385.6999999284744","0","[""#48a782"",""#955db9""]","[""#5f6f81"",""#7f5d5d""]","[1440,900]","1","92","[0.459,0.663,0.496,0.332]","1","0","false","","",""
"","","","","","two-step-trial","97","269388","0.0-98.0-0.0","","","","","[0,1]","0","0","270.8000000715256","1","0","[0,1]","0","0","334.39999997615814","0","[""#48a782"",""#955db9""]","[""#5f6f81"",""#7f5d5d""]","[1440,900]","1","93","[0.47,0.662,0.476,0.3]","1","0","false","","",""
"","","","","","two-step-trial","98","271911","0.0-99.0-0.0","","","","","[0,1]","1","1","175.39999997615814","1","1","[2,3]","0","2","338.39999997615814","0","[""#48a782"",""#955db9""]","[""#5f6f81"",""#7f5d5d""]","[1440,900]","1","94","[0.495,0.666,0.452,0.265]","1","0","false","","",""
"","","","","","two-step-trial","99","274778","0.0-100.0-0.0","","","","","[0,1]","1","1","195.19999992847443","0","0","[0,1]","0","0","661.5","1","[""#48a782"",""#955db9""]","[""#5f6f81"",""#7f5d5d""]","[1440,900]","1","95","[0.524,0.697,0.448,0.345]","1","0","false","","",""
"","","","","","two-step-trial","100","277426","0.0-101.0-0.0","","","","","[0,1]","1","1","310.89999997615814","1","1","[2,3]","1","3","327.60000002384186","0","[""#48a782"",""#955db9""]","[""#5f6f81"",""#7f5d5d""]","[1440,900]","1","96","[0.524,0.681,0.435,0.338]","1","0","false","","",""
"","","","","","two-step-trial","101","279839","0.0-102.0-0.0","","","","","[0,1]","0","0","101.80000007152557","0","1","[2,3]","0","2","303","0","[""#48a782"",""#955db9""]","[""#5f6f81"",""#7f5d5d""]","[1440,900]","1","97","[0.542,0.675,0.441,0.363]","1","0","false","","",""
"","","","","","two-step-trial","102","282501","0.0-103.0-0.0","","","","","[0,1]","0","0","254.69999992847443","1","0","[0,1]","0","0","402.7000000476837","1","[""#48a782"",""#955db9""]","[""#5f6f81"",""#7f5d5d""]","[1440,900]","1","98","[0.542,0.7,0.418,0.358]","1","0","false","","",""
"","","","","","two-step-trial","103","285069","0.0-104.0-0.0","","","","","[0,1]","0","0","135.10000002384186","1","0","[0,1]","0","0","421.6999999284744","0","[""#48a782"",""#955db9""]","[""#5f6f81"",""#7f5d5d""]","[1440,900]","1","99","[0.586,0.735,0.41,0.338]","1","0","false","","",""
"","","","","","two-step-trial","104","287582","0.0-105.0-0.0","","","","","[0,1]","0","0","157","1","0","[0,1]","0","0","344.39999997615814","0","[""#48a782"",""#955db9""]","[""#5f6f81"",""#7f5d5d""]","[1440,900]","1","100","[0.591,0.693,0.426,0.36]","1","0","false","","",""
"","","","","","two-step-trial","105","290169","0.0-106.0-0.0","","","","","[0,1]","1","1","302.09999990463257","1","1","[2,3]","0","2","276.5","1","[""#48a782"",""#955db9""]","[""#5f6f81"",""#7f5d5d""]","[1440,900]","1","101","[0.639,0.722,0.416,0.356]","1","0","false","","",""
"","","","","","two-step-trial","106","292896","0.0-107.0-0.0","","","","","[0,1]","1","1","300.89999997615814","1","1","[2,3]","0","2","416.60000002384186","0","[""#48a782"",""#955db9""]","[""#5f6f81"",""#7f5d5d""]","[1440,900]","1","102","[0.661,0.749,0.353,0.384]","1","0","false","","",""
"","","","","","two-step-trial","107","295248","0.0-108.0-0.0","","","","","[0,1]","1","1","100.10000002384186","0","0","[0,1]","1","1","243.60000002384186","1","[""#48a782"",""#955db9""]","[""#5f6f81"",""#7f5d5d""]","[1440,900]","1","103","[0.659,0.729,0.293,0.396]","1","0","false","","",""
"","","","","","two-step-trial","108","298001","0.0-109.0-0.0","","","","","[0,1]","0","0","369.5","1","0","[0,1]","1","1","375.6999999284744","1","[""#48a782"",""#955db9""]","[""#5f6f81"",""#7f5d5d""]","[1440,900]","1","104","[0.615,0.721,0.288,0.378]","1","0","false","","",""
"","","","","","two-step-trial","109","300870","0.0-110.0-0.0","","","","","[0,1]","0","0","508","1","0","[0,1]","1","1","350.5","1","[""#48a782"",""#955db9""]","[""#5f6f81"",""#7f5d5d""]","[1440,900]","1","105","[0.562,0.742,0.297,0.343]","1","0","false","","",""
"","","","","","two-step-trial","110","303581","0.0-111.0-0.0","","","","","[0,1]","0","0","309.3000000715256","1","0","[0,1]","1","1","390.8000000715256","1","[""#48a782"",""#955db9""]","[""#5f6f81"",""#7f5d5d""]","[1440,900]","1","106","[0.532,0.742,0.25,0.332]","1","0","false","","",""
"","","","","","two-step-trial","111","306065","0.0-112.0-0.0","","","","","[0,1]","0","0","111.89999997615814","1","0","[0,1]","1","1","362","0","[""#48a782"",""#955db9""]","[""#5f6f81"",""#7f5d5d""]","[1440,900]","1","107","[0.531,0.742,0.255,0.33]","1","0","false","","",""
"","","","","","two-step-trial","112","308496","0.0-113.0-0.0","","","","","[0,1]","0","0","71.10000002384186","1","0","[0,1]","1","1","353.8000000715256","0","[""#48a782"",""#955db9""]","[""#5f6f81"",""#7f5d5d""]","[1440,900]","1","108","[0.576,0.733,0.281,0.338]","1","0","false","","",""
"","","","","","two-step-trial","113","310907","0.0-114.0-0.0","","","","","[0,1]","0","0","164.19999992847443","1","0","[0,1]","1","1","236.5","1","[""#48a782"",""#955db9""]","[""#5f6f81"",""#7f5d5d""]","[1440,900]","1","109","[0.593,0.74,0.277,0.333]","1","0","false","","",""
"","","","","","two-step-trial","114","313360","0.0-115.0-0.0","","","","","[0,1]","0","0","168.79999995231628","1","0","[0,1]","1","1","276.3000000715256","1","[""#48a782"",""#955db9""]","[""#5f6f81"",""#7f5d5d""]","[1440,900]","1","110","[0.57,0.735,0.318,0.349]","1","0","false","","",""
"","","","","","two-step-trial","115","316481","0.0-116.0-0.0","","","","","[0,1]","0","0","775","1","0","[0,1]","1","1","338.60000002384186","1","[""#48a782"",""#955db9""]","[""#5f6f81"",""#7f5d5d""]","[1440,900]","1","111","[0.566,0.726,0.306,0.333]","1","0","false","","",""
"","","","","","two-step-trial","116","318781","0.0-117.0-0.0","","","","","[0,1]","0","0","39.89999997615814","1","0","[0,1]","1","1","253.10000002384186","1","[""#48a782"",""#955db9""]","[""#5f6f81"",""#7f5d5d""]","[1440,900]","1","112","[0.552,0.734,0.35,0.354]","1","0","false","","",""
"","","","","","two-step-trial","117","321311","0.0-118.0-0.0","","","","","[0,1]","0","0","227.60000002384186","1","0","[0,1]","1","1","293.1999999284744","1","[""#48a782"",""#955db9""]","[""#5f6f81"",""#7f5d5d""]","[1440,900]","1","113","[0.503,0.684,0.352,0.329]","1","0","false","","",""
"","","","","","two-step-trial","118","323616","0.0-119.0-0.0","","","","","[0,1]","0","0","35.90000009536743","1","0","[0,1]","1","1","261.40000009536743","1","[""#48a782"",""#955db9""]","[""#5f6f81"",""#7f5d5d""]","[1440,900]","1","114","[0.517,0.664,0.374,0.314]","1","0","false","","",""
"","","","","","two-step-trial","119","326078","0.0-120.0-0.0","","","","","[0,1]","0","0","197.70000004768372","0","1","[2,3]","1","3","257","0","[""#48a782"",""#955db9""]","[""#5f6f81"",""#7f5d5d""]","[1440,900]","1","115","[0.505,0.635,0.405,0.281]","1","0","false","","",""
"","","","","","two-step-trial","120","328842","0.0-121.0-0.0","","","","","[0,1]","0","0","133.70000004768372","0","1","[2,3]","0","2","621.2000000476837","1","[""#48a782"",""#955db9""]","[""#5f6f81"",""#7f5d5d""]","[1440,900]","1","116","[0.506,0.651,0.43,0.328]","1","0","false","","",""
"","","","","","two-step-trial","121","331565","0.0-122.0-0.0","","","","","[0,1]","0","0","173.10000002384186","1","0","[0,1]","1","1","539.7999999523163","0","[""#48a782"",""#955db9""]","[""#5f6f81"",""#7f5d5d""]","[1440,900]","1","117","[0.524,0.623,0.426,0.298]","1","0","false","","",""
"","","","","","two-step-trial","122","334314","0.0-123.0-0.0","","","","","[0,1]","0","0","142","0","1","[2,3]","0","2","597.8999999761581","0","[""#48a782"",""#955db9""]","[""#5f6f81"",""#7f5d5d""]","[1440,900]","1","118","[0.512,0.652,0.411,0.294]","1","0","false","","",""
"","","","","","two-step-trial","123","336849","0.0-124.0-0.0","","","","","[0,1]","0","0","211.10000002384186","1","0","[0,1]","1","1","315.2999999523163","1","[""#48a782"",""#955db9""]","[""#5f6f81"",""#7f5d5d""]","[1440,900]","1","119","[0.502,0.652,0.413,0.344]","1","0","false","","",""
"","","","","","two-step-trial","124","339525","0.0-125.0-0.0","","","","","[0,1]","0","0","226.39999997615814","1","0","[0,1]","1","1","445.7999999523163","1","[""#48a782"",""#955db9""]","[""#5f6f81"",""#7f5d5d""]","[1440,900]","1","120","[0.482,0.631,0.394,0.33]","1","0","false","","",""
"","","","","","two-step-trial","125","342323","0.0-126.0-0.0","","","","","[0,1]","0","0","269","0","1","[2,3]","0","2","520","0","[""#48a782"",""#955db9""]","[""#5f6f81"",""#7f5d5d""]","[1440,900]","1","121","[0.447,0.633,0.361,0.325]","1","0","false","","",""
"","","","","","two-step-trial","126","345032","0.0-127.0-0.0","","","","","[0,1]","0","0","232.30000007152557","1","0","[0,1]","1","1","466.7999999523163","1","[""#48a782"",""#955db9""]","[""#5f6f81"",""#7f5d5d""]","[1440,900]","1","122","[0.451,0.597,0.354,0.284]","1","0","false","","",""
"","","","","","two-step-trial","127","347617","0.0-128.0-0.0","","","","","[0,1]","0","0","242.30000007152557","1","0","[0,1]","1","1","336.6999999284744","0","[""#48a782"",""#955db9""]","[""#5f6f81"",""#7f5d5d""]","[1440,900]","1","123","[0.511,0.55,0.353,0.29]","1","0","false","","",""
"","","","","","two-step-trial","128","350023","0.0-129.0-0.0","","","","","[0,1]","0","0","148.89999997615814","1","0","[0,1]","1","1","247.5","0","[""#48a782"",""#955db9""]","[""#5f6f81"",""#7f5d5d""]","[1440,900]","1","124","[0.523,0.509,0.361,0.326]","1","0","false","","",""
"","","","","","two-step-trial","129","352637","0.0-130.0-0.0","","","","","[0,1]","0","0","238.70000004768372","0","1","[2,3]","1","3","369.40000009536743","0","[""#48a782"",""#955db9""]","[""#5f6f81"",""#7f5d5d""]","[1440,900]","1","125","[0.519,0.49,0.295,0.344]","1","0","false","","",""
"","","","","","two-step-trial","130","355153","0.0-131.0-0.0","","","","","[0,1]","0","0","190.30000007152557","1","0","[0,1]","1","1","316.6999999284744","0","[""#48a782"",""#955db9""]","[""#5f6f81"",""#7f5d5d""]","[1440,900]","1","126","[0.525,0.444,0.287,0.34]","1","0","false","","",""
"","","","","","two-step-trial","131","357535","0.0-132.0-0.0","","","","","[0,1]","0","0","86.39999997615814","1","0","[0,1]","1","1","289.1999999284744","1","[""#48a782"",""#955db9""]","[""#5f6f81"",""#7f5d5d""]","[1440,900]","1","127","[0.473,0.463,0.278,0.293]","1","0","false","","",""
"","","","","","two-step-trial","132","360594","0.0-133.0-0.0","","","","","[0,1]","0","0","242","0","1","[2,3]","0","2","807","0","[""#48a782"",""#955db9""]","[""#5f6f81"",""#7f5d5d""]","[1440,900]","1","128","[0.496,0.47,0.277,0.271]","1","0","false","","",""
"","","","","","two-step-trial","133","363040","0.0-134.0-0.0","","","","","[0,1]","0","0","98.5","1","0","[0,1]","1","1","338.6999999284744","1","[""#48a782"",""#955db9""]","[""#5f6f81"",""#7f5d5d""]","[1440,900]","1","129","[0.477,0.48,0.264,0.281]","1","0","false","","",""
"","","","","","two-step-trial","134","365612","0.0-135.0-0.0","","","","","[0,1]","0","0","235.60000002384186","0","1","[2,3]","1","3","327.7000000476837","0","[""#48a782"",""#955db9""]","[""#5f6f81"",""#7f5d5d""]","[1440,900]","1","130","[0.494,0.486,0.258,0.258]","1","0","false","","",""
"","","","","","two-step-trial","135","368115","0.0-136.0-0.0","","","","","[0,1]","0","0","210.10000002384186","1","0","[0,1]","1","1","284.1999999284744","1","[""#48a782"",""#955db9""]","[""#5f6f81"",""#7f5d5d""]","[1440,900]","1","131","[0.493,0.471,0.325,0.274]","1","0","false","","",""
"","","","","","two-step-trial","136","370375","0.0-137.0-0.0","","","","","[0,1]","0","0","76.5","1","0","[0,1]","0","0","179.5","1","[""#48a782"",""#955db9""]","[""#5f6f81"",""#7f5d5d""]","[1440,900]","1","132","[0.495,0.414,0.29,0.261]","1","0","false","","",""
"","","","","","two-step-trial","137","373317","0.0-138.0-0.0","","","","","[0,1]","0","0","295.1999999284744","0","1","[2,3]","1","3","638.3000000715256","0","[""#48a782"",""#955db9""]","[""#5f6f81"",""#7f5d5d""]","[1440,900]","1","133","[0.486,0.393,0.318,0.253]","1","0","false","","",""
"","","","","","two-step-trial","138","375854","0.0-139.0-0.0","","","","","[0,1]","0","0","228.10000002384186","1","0","[0,1]","1","1","299.60000002384186","0","[""#48a782"",""#955db9""]","[""#5f6f81"",""#7f5d5d""]","[1440,900]","1","134","[0.485,0.381,0.329,0.268]","1","0","false","","",""
"","","","","","two-step-trial","139","378682","0.0-140.0-0.0","","","","","[0,1]","0","0","252.60000002384186","0","1","[2,3]","0","2","567.1000000238419","0","[""#48a782"",""#955db9""]","[""#5f6f81"",""#7f5d5d""]","[1440,900]","1","135","[0.476,0.33,0.348,0.266]","1","0","false","","",""
"","","","","","two-step-trial","140","381193","0.0-141.0-0.0","","","","","[0,1]","0","0","235.60000002384186","1","0","[0,1]","0","0","270.8000000715256","0","[""#48a782"",""#955db9""]","[""#5f6f81"",""#7f5d5d""]","[1440,900]","1","136","[0.408,0.356,0.348,0.276]","1","0","false","","",""
"","","","","","two-step-trial","141","383828","0.0-142.0-0.0","","","","","[0,1]","0","0","244.39999997615814","1","0","[0,1]","1","1","383","0","[""#48a782"",""#955db9""]","[""#5f6f81"",""#7f5d5d""]","[1440,900]","1","137","[0.444,0.402,0.328,0.271]","1","0","false","","",""
"","","","","","two-step-trial","142","386561","0.0-143.0-0.0","","","","","[0,1]","0","0","347.39999997615814","1","0","[0,1]","1","1","376.2000000476837","1","[""#48a782"",""#955db9""]","[""#5f6f81"",""#7f5d5d""]","[1440,900]","1","138","[0.443,0.378,0.381,0.256]","1","0","false","","",""
"","","","","","two-step-trial","143","389235","0.0-144.0-0.0","","","","","[0,1]","0","0","256.39999997615814","1","0","[0,1]","1","1","411","0","[""#48a782"",""#955db9""]","[""#5f6f81"",""#7f5d5d""]","[1440,900]","1","139","[0.465,0.376,0.423,0.302]","1","0","false","","",""
"","","","","","two-step-trial","144","391722","0.0-145.0-0.0","","","","","[0,1]","0","0","207","1","0","[0,1]","1","1","271.39999997615814","0","[""#48a782"",""#955db9""]","[""#5f6f81"",""#7f5d5d""]","[1440,900]","1","140","[0.503,0.356,0.419,0.307]","1","0","false","","",""
"","","","","","two-step-trial","145","394171","0.0-146.0-0.0","","","","","[0,1]","0","0","272.89999997615814","1","0","[0,1]","1","1","171.39999997615814","1","[""#48a782"",""#955db9""]","[""#5f6f81"",""#7f5d5d""]","[1440,900]","1","141","[0.498,0.362,0.406,0.333]","1","0","false","","",""
"","","","","","two-step-trial","146","396800","0.0-147.0-0.0","","","","","[0,1]","0","0","250.89999997615814","1","0","[0,1]","1","1","374.2000000476837","1","[""#48a782"",""#955db9""]","[""#5f6f81"",""#7f5d5d""]","[1440,900]","1","142","[0.462,0.376,0.412,0.337]","1","0","false","","",""
"","","","","","two-step-trial","147","399602","0.0-148.0-0.0","","","","","[0,1]","0","0","2.600000023841858","0","1","[2,3]","0","2","789.7999999523163","1","[""#48a782"",""#955db9""]","[""#5f6f81"",""#7f5d5d""]","[1440,900]","1","143","[0.494,0.345,0.399,0.358]","1","0","false","","",""
"","","","","","two-step-trial","148","402110","0.0-149.0-0.0","","","","","[0,1]","0","0","39.700000047683716","1","0","[0,1]","1","1","459.60000002384186","0","[""#48a782"",""#955db9""]","[""#5f6f81"",""#7f5d5d""]","[1440,900]","1","144","[0.471,0.35,0.398,0.37]","1","0","false","","",""
"","","","","","two-step-trial","149","404645","0.0-150.0-0.0","","","","","[0,1]","0","0","81","1","0","[0,1]","1","1","446","0","[""#48a782"",""#955db9""]","[""#5f6f81"",""#7f5d5d""]","[1440,900]","1","145","[0.465,0.328,0.41,0.376]","1","0","false","","",""
"","","","","","two-step-trial","150","407295","0.0-151.0-0.0","","","","","[0,1]","0","0","249.5","0","1","[2,3]","0","2","392.7999999523163","1","[""#48a782"",""#955db9""]","[""#5f6f81"",""#7f5d5d""]","[1440,900]","1","146","[0.465,0.323,0.402,0.384]","1","0","false","","",""
"","","","","","two-step-trial","151","410008","0.0-152.0-0.0","","","","","[0,1]","0","0","210.89999997615814","0","1","[2,3]","0","2","492.89999997615814","0","[""#48a782"",""#955db9""]","[""#5f6f81"",""#7f5d5d""]","[1440,900]","1","147","[0.464,0.338,0.408,0.409]","1","0","false","","",""
"","","","","","two-step-trial","152","412839","0.0-153.0-0.0","","","","","[0,1]","0","0","263.6999999284744","0","1","[2,3]","0","2","555.8999999761581","0","[""#48a782"",""#955db9""]","[""#5f6f81"",""#7f5d5d""]","[1440,900]","1","148","[0.439,0.323,0.426,0.358]","1","0","false","","",""
"","","","","","two-step-trial","153","415802","0.0-154.0-0.0","","","","","[0,1]","0","0","319.7999999523163","0","1","[2,3]","1","3","634.5","0","[""#48a782"",""#955db9""]","[""#5f6f81"",""#7f5d5d""]","[1440,900]","1","149","[0.413,0.342,0.4,0.33]","1","0","false","","",""
"","","","","","two-step-trial","154","418543","0.0-155.0-0.0","","","","","[0,1]","0","0","327.60000002384186","1","0","[0,1]","1","1","407.39999997615814","1","[""#48a782"",""#955db9""]","[""#5f6f81"",""#7f5d5d""]","[1440,900]","1","150","[0.421,0.338,0.389,0.35]","1","0","false","","",""
"","","","","","two-step-instructions","155","424894","0.0-156.0","6348.900000095367","","","[{""page_index"":0,""viewing_time"":6348.700000047684}]","","","","","","","","","","","","","","","","","","","","","","",""
"","","","","","two-step-comprehension","156","449125","0.0-157.0","24229.299999952316","","","","","","","","","","","","","","","","","","","","","","","","[""green"",""purple""]","0","[{""event"":""fullscreenenter"",""trial"":1,""time"":1794}]"
