"success","timeout","failed_images","failed_audio","failed_video","trial_type","trial_index","time_elapsed","internal_node_id","rt","stimulus","response","view_history","state_1_ids","state_1_key","state_1_choice","state_1_rt","transition","state","state_2_ids","state_2_key","state_2_choice","state_2_rt","outcome","rocket_colors","planet_colors","screen_resolution","minimum_resolution","trial","drifts","drift_ix","browser_interactions","missing","responses","num_errors","interactions"
"true","false","[]","[]","[]","preload","0","128","0.0-0.0","","","","","","","","","","","","","","","","","","","","","","","","","","",""
"true","","","","","fullscreen","1","185697","0.0-1.0","","","","","","","","","","","","","","","","","","","","","","","","","","",""
"","","","","","html-keyboard-response","2","187849","0.0-2.0","2149.899999976158","<p>You are starting a demo of the <b>two-step task.</b></p><p>To see the instructions, press the ""1"" key. To skip them, press the ""2"" key.</p>","2","","","","","","","","","","","","","","","","","","","","","","","",""
"","","","","","two-step-instructions","3","192626","0.0-4.0","4772.699999988079","","","[{""page_index"":0,""viewing_time"":1611.3999999761581},{""page_index"":1,""viewing_time"":1878.4000000357628},{""page_index"":2,""viewing_time"":1282.3999999761581}]","","","","","","","","","","","","","","","","","","","","","","",""
"","","","","","two-step-trial","4","196066","0.0-5.0-0.0","","","","","[0,1]","1","1","1266.2000000476837","1","1","[2,3]","1","3","151.0999999642372","0","[""#48a782"",""#955db9""]","[""#5f6f81"",""#7f5d5d""]","[1440,900]","1","1","[0.6,0.51,0.387,0.388]","0","0","false","","",""
"","","","","","two-step-trial","5","199118","0.0-6.0-0.0","","","","","[0,1]","1","1","363.9000000357628","0","0","[0,1]","1","1","674.5999999642372","1","[""#48a782"",""#955db9""]","[""#5f6f81"",""#7f5d5d""]","[1440,900]","1","2","[0.6,0.49,0.376,0.364]","0","0","false","","",""
"","","","","","two-step-trial","6","201894","0.0-7.0-0.0","","","","","[0,1]","1","1","327","1","1","[2,3]","1","3","440.80000001192093","1","[""#48a782"",""#955db9""]","[""#5f6f81"",""#7f5d5d""]","[1440,900]","1","3","[0.612,0.488,0.376,0.385]","0","0","false","","",""
"","","","","","two-step-trial","7","204870","0.0-8.0-0.0","","","","","[0,1]","1","1","180","1","1","[2,3]","1","3","779.5","0","[""#48a782"",""#955db9""]","[""#5f6f81"",""#7f5d5d""]","[1440,900]","1","4","[0.659,0.517,0.37,0.352]","0","0","false","","",""
"","","","","","two-step-trial","8","207753","0.0-9.0-0.0","","","","","[0,1]","1","1","470.80000001192093","1","1","[2,3]","1","3","394.60000002384186","0","[""#48a782"",""#955db9""]","[""#5f6f81"",""#7f5d5d""]","[1440,900]","1","5","[0.676,0.497,0.349,0.378]","0","0","false","","",""
"","","","","","two-step-trial","9","210397","0.0-10.0-0.0","","","","","[0,1]","1","1","146.30000001192093","1","1","[2,3]","0","2","492","0","[""#48a782"",""#955db9""]","[""#5f6f81"",""#7f5d5d""]","[1440,900]","1","6","[0.682,0.475,0.347,0.386]","0","0","false","","",""
"","","","","","two-step-trial","10","213189","0.0-11.0-0.0","","","","","[0,1]","1","1","294.5","1","1","[2,3]","1","3","478.89999997615814","0","[""#48a782"",""#955db9""]","[""#5f6f81"",""#7f5d5d""]","[1440,900]","1","7","[0.65,0.473,0.346,0.344]","0","0","false","","",""
"","","","","","two-step-trial","11","215706","0.0-12.0-0.0","","","","","[0,1]","1","1","22.80000001192093","1","1","[2,3]","0","2","479.4000000357628","0","[""#48a782"",""#955db9""]","[""#5f6f81"",""#7f5d5d""]","[1440,900]","1","8","[0.637,0.456,0.371,0.318]","0","0","false","","",""
"","","","","","two-step-trial","12","218273","0.0-13.0-0.0","","","","","[0,1]","1","1","306.10000002384186","1","1","[2,3]","1","3","249.30000001192093","0","[""#48a782"",""#955db9""]","[""#5f6f81"",""#7f5d5d""]","[1440,900]","1","9","[0.637,0.443,0.354,0.311]","0","0","false","","",""
"","","","","","two-step-trial","13","220937","0.0-14.0-0.0","","","","","[0,1]","1","1","401","1","1","[2,3]","1","3","250.60000002384186","0","[""#48a782"",""#955db9""]","[""#5f6f81"",""#7f5d5d""]","[1440,900]","1","10","[0.63,0.435,0.315,0.32]","0","0","false","","",""
"","","","","","two-step-trial","14","223458","0.0-15.0-0.0","","","","","[0,1]","1","1","279.60000002384186","1","1","[2,3]","1","3","223.5","0","[""#48a782"",""#955db9""]","[""#5f6f81"",""#7f5d5d""]","[1440,900]","1","11","[0.599,0.48,0.291,0.32]","0","0","false","","",""
"","","","","","two-step-trial","15","226366","0.0-16.0-0.0","","","","","[0,1]","0","0","290.69999998807907","1","0","[0,1]","1","1","604","0","[""#48a782"",""#955db9""]","[""#5f6f81"",""#7f5d5d""]","[1440,900]","1","12","[0.573,0.445,0.3,0.33]","0","0","false","","",""
"","","","","","two-step-trial","16","229030","0.0-17.0-0.0","","","","","[0,1]","0","0","262.2000000476837","1","0","[0,1]","1","1","384.7999999523163","0","[""#48a782"",""#955db9""]","[""#5f6f81"",""#7f5d5d""]","[1440,900]","1","13","[0.6,0.4,0.3,0.32]","0","0","false","","",""
"","","","","","two-step-trial","17","231416","0.0-18.0-0.0","","","","","[0,1]","0","0","118.19999998807907","1","0","[0,1]","0","0","256.39999997615814","0","[""#48a782"",""#955db9""]","[""#5f6f81"",""#7f5d5d""]","[1440,900]","1","14","[0.601,0.428,0.308,0.274]","0","0","false","","",""
"","","","","","two-step-trial","18","233714","0.0-19.0-0.0","","","","","[0,1]","0","0","43.39999997615814","1","0","[0,1]","1","1","238.19999998807907","1","[""#48a782"",""#955db9""]","[""#5f6f81"",""#7f5d5d""]","[1440,900]","1","15","[0.588,0.441,0.345,0.295]","0","0","false","","",""
"","","","","","two-step-trial","19","236209","0.0-20.0-0.0","","","","","[0,1]","0","0","168.69999998807907","0","1","[2,3]","1","3","314","0","[""#48a782"",""#955db9""]","[""#5f6f81"",""#7f5d5d""]","[1440,900]","1","16","[0.641,0.463,0.39,0.301]","0","0","false","","",""
"","","","","","two-step-trial","20","238672","0.0-21.0-0.0","","","","","[0,1]","0","0","197.5","0","1","[2,3]","0","2","248.5999999642372","0","[""#48a782"",""#955db9""]","[""#5f6f81"",""#7f5d5d""]","[1440,900]","1","17","[0.649,0.465,0.413,0.325]","0","0","false","","",""
"","","","","","two-step-trial","21","241145","0.0-22.0-0.0","","","","","[0,1]","0","0","269.60000002384186","0","1","[2,3]","1","3","183.19999998807907","0","[""#48a782"",""#955db9""]","[""#5f6f81"",""#7f5d5d""]","[1440,900]","1","18","[0.627,0.478,0.397,0.324]","0","0","false","","",""
"","","","","","two-step-trial","22","243610","0.0-23.0-0.0","","","","","[0,1]","0","0","245","1","0","[0,1]","0","0","198.39999997615814","1","[""#48a782"",""#955db9""]","[""#5f6f81"",""#7f5d5d""]","[1440,900]","1","19","[0.656,0.491,0.375,0.348]","0","0","false","","",""
"","","","","","two-step-trial","23","245943","0.0-24.0-0.0","","","","","[0,1]","0","0","40.09999996423721","1","0","[0,1]","0","0","284.4000000357628","1","[""#48a782"",""#955db9""]","[""#5f6f81"",""#7f5d5d""]","[1440,900]","1","20","[0.64,0.468,0.396,0.335]","0","0","false","","",""
"","","","","","two-step-trial","24","248385","0.0-25.0-0.0","","","","","[0,1]","0","0","113.89999997615814","1","0","[0,1]","0","0","308.69999998807907","1","[""#48a782"",""#955db9""]","[""#5f6f81"",""#7f5d5d""]","[1440,900]","1","21","[0.633,0.467,0.352,0.33]","0","0","false","","",""
"","","","","","two-step-trial","25","251110","0.0-26.0-0.0","","","","","[0,1]","0","0","581.6000000238419","0","1","[2,3]","1","3","132","0","[""#48a782"",""#955db9""]","[""#5f6f81"",""#7f5d5d""]","[1440,900]","1","22","[0.591,0.462,0.379,0.373]","0","0","false","","",""
"","","","","","two-step-trial","26","254238","0.0-27.0-0.0","","","","","[0,1]","0","0","355","1","0","[0,1]","1","1","764","1","[""#48a782"",""#955db9""]","[""#5f6f81"",""#7f5d5d""]","[1440,900]","1","23","[0.612,0.436,0.44,0.331]","0","0","false","","",""
"","","","","","two-step-trial","27","257034","0.0-28.0-0.0","","","","","[0,1]","0","0","184","1","0","[0,1]","1","1","593.1999999880791","1","[""#48a782"",""#955db9""]","[""#5f6f81"",""#7f5d5d""]","[1440,900]","1","24","[0.612,0.434,0.473,0.352]","0","0","false","","",""
"","","","","","two-step-trial","28","260448","0.0-29.0-0.0","","","","","[0,1]","0","0","43.59999996423721","0","1","[2,3]","0","2","1356.9000000357628","0","[""#48a782"",""#955db9""]","[""#5f6f81"",""#7f5d5d""]","[1440,900]","1","25","[0.568,0.394,0.47,0.342]","0","0","false","","",""
"","","","","","two-step-trial","29","263007","0.0-30.0-0.0","","","","","[0,1]","0","0","290.30000001192093","1","0","[0,1]","1","1","262.69999998807907","0","[""#48a782"",""#955db9""]","[""#5f6f81"",""#7f5d5d""]","[1440,900]","1","26","[0.601,0.434,0.455,0.342]","0","0","false","","",""
"","","","","","two-step-trial","30","265520","0.0-31.0-0.0","","","","","[0,1]","0","0","223","0","1","[2,3]","1","3","272.9000000357628","0","[""#48a782"",""#955db9""]","[""#5f6f81"",""#7f5d5d""]","[1440,900]","1","27","[0.539,0.464,0.435,0.334]","0","0","false","","",""
"","","","","","two-step-trial","31","267840","0.0-32.0-0.0","","","","","[0,1]","0","0","288.5","1","0","[0,1]","0","0","17.80000001192093","0","[""#48a782"",""#955db9""]","[""#5f6f81"",""#7f5d5d""]","[1440,900]","1","28","[0.523,0.476,0.415,0.352]","0","0","false","","",""
"","","","","","two-step-trial","32","270186","0.0-33.0-0.0","","","","","[0,1]","1","1","306.9000000357628","1","1","[2,3]","0","2","25.599999964237213","0","[""#48a782"",""#955db9""]","[""#5f6f81"",""#7f5d5d""]","[1440,900]","1","29","[0.515,0.504,0.459,0.339]","0","0","false","","",""
"","","","","","two-step-trial","33","272631","0.0-34.0-0.0","","","","","[0,1]","1","1","221.70000004768372","0","0","[0,1]","1","1","207.60000002384186","0","[""#48a782"",""#955db9""]","[""#5f6f81"",""#7f5d5d""]","[1440,900]","1","30","[0.491,0.488,0.491,0.323]","0","0","false","","",""
"","","","","","two-step-trial","34","275217","0.0-35.0-0.0","","","","","[0,1]","1","1","313.89999997615814","1","1","[2,3]","0","2","255.19999998807907","1","[""#48a782"",""#955db9""]","[""#5f6f81"",""#7f5d5d""]","[1440,900]","1","31","[0.478,0.502,0.474,0.353]","0","0","false","","",""
"","","","","","two-step-trial","35","278047","0.0-36.0-0.0","","","","","[0,1]","0","0","344.69999998807907","1","0","[0,1]","0","0","470.4000000357628","1","[""#48a782"",""#955db9""]","[""#5f6f81"",""#7f5d5d""]","[1440,900]","1","32","[0.459,0.453,0.457,0.338]","0","0","false","","",""
"","","","","","two-step-trial","36","280498","0.0-37.0-0.0","","","","","[0,1]","0","0","252.10000002384186","1","0","[0,1]","0","0","178.89999997615814","0","[""#48a782"",""#955db9""]","[""#5f6f81"",""#7f5d5d""]","[1440,900]","1","33","[0.435,0.461,0.485,0.304]","0","0","false","","",""
"","","","","","two-step-trial","37","282929","0.0-38.0-0.0","","","","","[0,1]","1","1","315.9000000357628","1","1","[2,3]","1","3","97.69999998807907","0","[""#48a782"",""#955db9""]","[""#5f6f81"",""#7f5d5d""]","[1440,900]","1","34","[0.425,0.445,0.448,0.302]","0","0","false","","",""
"","","","","","two-step-trial","38","285464","0.0-39.0-0.0","","","","","[0,1]","0","0","316","1","0","[0,1]","0","0","203.4000000357628","0","[""#48a782"",""#955db9""]","[""#5f6f81"",""#7f5d5d""]","[1440,900]","1","35","[0.398,0.417,0.401,0.285]","0","0","false","","",""
"","","","","","two-step-trial","39","287896","0.0-40.0-0.0","","","","","[0,1]","0","0","75.30000001192093","1","0","[0,1]","0","0","341.10000002384186","0","[""#48a782"",""#955db9""]","[""#5f6f81"",""#7f5d5d""]","[1440,900]","1","36","[0.438,0.401,0.404,0.302]","0","0","false","","",""
"","","","","","two-step-trial","40","290534","0.0-41.0-0.0","","","","","[0,1]","0","0","375.5","0","1","[2,3]","0","2","253.69999998807907","1","[""#48a782"",""#955db9""]","[""#5f6f81"",""#7f5d5d""]","[1440,900]","1","37","[0.446,0.383,0.396,0.273]","0","0","false","","",""
"","","","","","two-step-trial","41","293182","0.0-42.0-0.0","","","","","[0,1]","0","0","458.5999999642372","1","0","[0,1]","0","0","179.30000001192093","1","[""#48a782"",""#955db9""]","[""#5f6f81"",""#7f5d5d""]","[1440,900]","1","38","[0.473,0.425,0.406,0.259]","0","0","false","","",""
"","","","","","two-step-trial","42","295807","0.0-43.0-0.0","","","","","[0,1]","0","0","386.60000002384186","0","1","[2,3]","0","2","226.80000001192093","1","[""#48a782"",""#955db9""]","[""#5f6f81"",""#7f5d5d""]","[1440,900]","1","39","[0.491,0.414,0.381,0.251]","0","0","false","","",""
"","","","","","two-step-trial","43","298096","0.0-44.0-0.0","","","","","[0,1]","0","0","194.70000004768372","1","0","[0,1]","0","0","84.39999997615814","1","[""#48a782"",""#955db9""]","[""#5f6f81"",""#7f5d5d""]","[1440,900]","1","40","[0.46,0.404,0.375,0.267]","0","0","false","","",""
"","","","","","two-step-trial","44","300941","0.0-45.0-0.0","","","","","[0,1]","0","0","608.6999999880791","1","0","[0,1]","0","0","229.5999999642372","1","[""#48a782"",""#955db9""]","[""#5f6f81"",""#7f5d5d""]","[1440,900]","1","41","[0.47,0.46,0.37,0.279]","0","0","false","","",""
"","","","","","two-step-trial","45","303071","0.0-46.0-0.0","","","","","[0,1]","0","0","33.69999998807907","1","0","[0,1]","0","0","84.89999997615814","1","[""#48a782"",""#955db9""]","[""#5f6f81"",""#7f5d5d""]","[1440,900]","1","42","[0.454,0.461,0.369,0.275]","0","0","false","","",""
"","","","","","two-step-trial","46","305881","0.0-47.0-0.0","","","","","[0,1]","0","0","308.89999997615814","1","0","[0,1]","0","0","482","0","[""#48a782"",""#955db9""]","[""#5f6f81"",""#7f5d5d""]","[1440,900]","1","43","[0.452,0.459,0.392,0.293]","0","0","false","","",""
"","","","","","two-step-trial","47","308577","0.0-48.0-0.0","","","","","[0,1]","0","0","202.0999999642372","1","0","[0,1]","0","0","474.89999997615814","1","[""#48a782"",""#955db9""]","[""#5f6f81"",""#7f5d5d""]","[1440,900]","1","44","[0.439,0.428,0.412,0.329]","0","0","false","","",""
"","","","","","two-step-trial","48","311309","0.0-49.0-0.0","","","","","[0,1]","0","0","405.89999997615814","1","0","[0,1]","1","1","314.5","1","[""#48a782"",""#955db9""]","[""#5f6f81"",""#7f5d5d""]","[1440,900]","1","45","[0.455,0.384,0.41,0.354]","0","0","false","","",""
"","","","","","two-step-trial","49","313568","0.0-50.0-0.0","","","","","[0,1]","0","0","125.20000004768372","1","0","[0,1]","1","1","123","0","[""#48a782"",""#955db9""]","[""#5f6f81"",""#7f5d5d""]","[1440,900]","1","46","[0.471,0.375,0.394,0.336]","0","0","false","","",""
"","","","","","two-step-trial","50","316118","0.0-51.0-0.0","","","","","[0,1]","0","0","232.5","0","1","[2,3]","0","2","303.30000001192093","1","[""#48a782"",""#955db9""]","[""#5f6f81"",""#7f5d5d""]","[1440,900]","1","47","[0.423,0.325,0.351,0.294]","0","0","false","","",""
"","","","","","two-step-trial","51","318623","0.0-52.0-0.0","","","","","[0,1]","0","0","96","1","0","[0,1]","0","0","395.69999998807907","0","[""#48a782"",""#955db9""]","[""#5f6f81"",""#7f5d5d""]","[1440,900]","1","48","[0.458,0.334,0.355,0.324]","0","0","false","","",""
"","","","","","two-step-trial","52","321005","0.0-53.0-0.0","","","","","[0,1]","1","1","255.70000004768372","1","1","[2,3]","1","3","113.5","1","[""#48a782"",""#955db9""]","[""#5f6f81"",""#7f5d5d""]","[1440,900]","1","49","[0.502,0.353,0.35,0.322]","0","0","false","","",""
"","","","","","two-step-trial","53","323926","0.0-54.0-0.0","","","","","[0,1]","1","1","678","1","1","[2,3]","1","3","222.80000001192093","0","[""#48a782"",""#955db9""]","[""#5f6f81"",""#7f5d5d""]","[1440,900]","1","50","[0.464,0.368,0.367,0.351]","0","0","false","","",""
"","","","","","two-step-trial","54","326913","0.0-55.0-0.0","","","","","[0,1]","1","1","385.5","1","1","[2,3]","1","3","588","0","[""#48a782"",""#955db9""]","[""#5f6f81"",""#7f5d5d""]","[1440,900]","1","51","[0.459,0.421,0.341,0.301]","0","0","false","","",""
"","","","","","two-step-trial","55","329538","0.0-56.0-0.0","","","","","[0,1]","1","1","146.30000001192093","0","0","[0,1]","1","1","459","1","[""#48a782"",""#955db9""]","[""#5f6f81"",""#7f5d5d""]","[1440,900]","1","52","[0.496,0.401,0.388,0.295]","0","0","false","","",""
"","","","","","two-step-trial","56","331857","0.0-57.0-0.0","","","","","[0,1]","1","1","230.4000000357628","1","1","[2,3]","1","3","76","0","[""#48a782"",""#955db9""]","[""#5f6f81"",""#7f5d5d""]","[1440,900]","1","53","[0.476,0.391,0.373,0.273]","0","0","false","","",""
"","","","","","two-step-trial","57","335185","0.0-58.0-0.0","","","","","[0,1]","1","1","309.2999999523163","1","1","[2,3]","1","3","999.8999999761581","0","[""#48a782"",""#955db9""]","[""#5f6f81"",""#7f5d5d""]","[1440,900]","1","54","[0.452,0.379,0.383,0.272]","0","0","false","","",""
"","","","","","two-step-trial","58","337929","0.0-59.0-0.0","","","","","[0,1]","1","1","477.60000002384186","0","0","[0,1]","1","1","250.4000000357628","0","[""#48a782"",""#955db9""]","[""#5f6f81"",""#7f5d5d""]","[1440,900]","1","55","[0.448,0.393,0.401,0.289]","0","0","false","","",""
"","","","","","two-step-trial","59","341170","0.0-60.0-0.0","","","","","[0,1]","1","1","737.1999999880791","1","1","[2,3]","1","3","493.5999999642372","0","[""#48a782"",""#955db9""]","[""#5f6f81"",""#7f5d5d""]","[1440,900]","1","56","[0.435,0.368,0.433,0.291]","0","0","false","","",""
"","","","","","two-step-trial","60","343961","0.0-61.0-0.0","","","","","[0,1]","1","1","194","0","0","[0,1]","1","1","573","0","[""#48a782"",""#955db9""]","[""#5f6f81"",""#7f5d5d""]","[1440,900]","1","57","[0.441,0.373,0.443,0.285]","0","0","false","","",""
"","","","","","two-step-trial","61","346482","0.0-62.0-0.0","","","","","[0,1]","1","1","122.60000002384186","0","0","[0,1]","1","1","379.19999998807907","1","[""#48a782"",""#955db9""]","[""#5f6f81"",""#7f5d5d""]","[1440,900]","1","58","[0.418,0.389,0.42,0.282]","0","0","false","","",""
"","","","","","two-step-trial","62","349007","0.0-63.0-0.0","","","","","[0,1]","1","1","19.900000035762787","1","1","[2,3]","1","3","491.60000002384186","0","[""#48a782"",""#955db9""]","[""#5f6f81"",""#7f5d5d""]","[1440,900]","1","59","[0.41,0.383,0.392,0.255]","0","0","false","","",""
"","","","","","two-step-trial","63","351735","0.0-64.0-0.0","","","","","[0,1]","1","1","447.2000000476837","1","1","[2,3]","1","3","273.10000002384186","0","[""#48a782"",""#955db9""]","[""#5f6f81"",""#7f5d5d""]","[1440,900]","1","60","[0.426,0.384,0.354,0.267]","0","0","false","","",""
"","","","","","two-step-trial","64","354526","0.0-65.0-0.0","","","","","[0,1]","1","1","190.80000001192093","1","1","[2,3]","1","3","588.2999999523163","0","[""#48a782"",""#955db9""]","[""#5f6f81"",""#7f5d5d""]","[1440,900]","1","61","[0.416,0.414,0.379,0.254]","0","0","false","","",""
"","","","","","two-step-trial","65","371830","0.0-66.0-0.0","","","","","[0,1]","1","1","245.69999998807907","1","1","[2,3]","null","null","null","null","[""#48a782"",""#955db9""]","[""#5f6f81"",""#7f5d5d""]","[1440,900]","1","62","[0.353,0.414,0.383,0.26]","0","1","true","","",""
"","","","","","two-step-trial","66","380022","0.0-66.1-0.1","","","","","[0,1]","1","1","6127.300000011921","1","1","[2,3]","1","3","50.09999996423721","0","[""#48a782"",""#955db9""]","[""#5f6f81"",""#7f5d5d""]","[1440,900]","1","62","[0.353,0.414,0.383,0.26]","0","1","false","","",""
"","","","","","two-step-trial","67","382215","0.0-67.0-0.0","","","","","[0,1]","1","1","18.900000035762787","1","1","[2,3]","1","3","161.10000002384186","0","[""#48a782"",""#955db9""]","[""#5f6f81"",""#7f5d5d""]","[1440,900]","1","63","[0.293,0.383,0.425,0.266]","0","0","false","","",""
"","","","","","two-step-trial","68","384771","0.0-68.0-0.0","","","","","[0,1]","1","1","90.20000004768372","0","0","[0,1]","0","0","450.5","1","[""#48a782"",""#955db9""]","[""#5f6f81"",""#7f5d5d""]","[1440,900]","1","64","[0.288,0.362,0.432,0.275]","0","0","false","","",""
"","","","","","two-step-trial","69","387270","0.0-69.0-0.0","","","","","[0,1]","0","0","50.69999998807907","1","0","[0,1]","0","0","431.7000000476837","0","[""#48a782"",""#955db9""]","[""#5f6f81"",""#7f5d5d""]","[1440,900]","1","65","[0.297,0.363,0.457,0.29]","0","0","false","","",""
"","","","","","two-step-trial","70","389775","0.0-70.0-0.0","","","","","[0,1]","1","1","398.5999999642372","1","1","[2,3]","0","2","97.39999997615814","1","[""#48a782"",""#955db9""]","[""#5f6f81"",""#7f5d5d""]","[1440,900]","1","66","[0.25,0.333,0.451,0.284]","0","0","false","","",""
"","","","","","two-step-trial","71","392304","0.0-71.0-0.0","","","","","[0,1]","0","0","270.5","1","0","[0,1]","0","0","247.10000002384186","0","[""#48a782"",""#955db9""]","[""#5f6f81"",""#7f5d5d""]","[1440,900]","1","67","[0.255,0.331,0.425,0.278]","0","0","false","","",""
"","","","","","two-step-trial","72","395026","0.0-72.0-0.0","","","","","[0,1]","0","0","162.30000001192093","0","1","[2,3]","0","2","542.1999999880791","1","[""#48a782"",""#955db9""]","[""#5f6f81"",""#7f5d5d""]","[1440,900]","1","68","[0.281,0.326,0.434,0.261]","0","0","false","","",""
"","","","","","two-step-trial","73","397827","0.0-73.0-0.0","","","","","[0,1]","0","0","341.69999998807907","1","0","[0,1]","0","0","439.39999997615814","0","[""#48a782"",""#955db9""]","[""#5f6f81"",""#7f5d5d""]","[1440,900]","1","69","[0.277,0.319,0.434,0.286]","0","0","false","","",""
"","","","","","two-step-trial","74","400730","0.0-74.0-0.0","","","","","[0,1]","0","0","360.30000001192093","1","0","[0,1]","0","0","526.6999999880791","0","[""#48a782"",""#955db9""]","[""#5f6f81"",""#7f5d5d""]","[1440,900]","1","70","[0.318,0.351,0.474,0.272]","0","0","false","","",""
"","","","","","two-step-trial","75","410211","0.0-75.0-0.0","","","","","[0,1]","0","0","276.5","1","0","[0,1]","0","0","7189.699999988079","0","[""#48a782"",""#955db9""]","[""#5f6f81"",""#7f5d5d""]","[1440,900]","1","71","[0.306,0.331,0.46,0.274]","0","0","false","","",""
"","","","","","two-step-trial","76","412497","0.0-76.0-0.0","","","","","[0,1]","1","1","263.69999998807907","0","0","[0,1]","1","1","10.600000023841858","0","[""#48a782"",""#955db9""]","[""#5f6f81"",""#7f5d5d""]","[1440,900]","1","72","[0.35,0.329,0.432,0.251]","0","0","false","","",""
"","","","","","two-step-trial","77","414555","0.0-77.0-0.0","","","","","[0,1]","1","1","17.69999998807907","1","1","[2,3]","1","3","28.19999998807907","0","[""#48a782"",""#955db9""]","[""#5f6f81"",""#7f5d5d""]","[1440,900]","1","73","[0.352,0.318,0.461,0.257]","0","0","false","","",""
"","","","","","two-step-trial","78","417387","0.0-78.0-0.0","","","","","[0,1]","1","1","456.39999997615814","1","1","[2,3]","1","3","359.60000002384186","0","[""#48a782"",""#955db9""]","[""#5f6f81"",""#7f5d5d""]","[1440,900]","1","74","[0.374,0.315,0.514,0.262]","0","0","false","","",""
"","","","","","two-step-trial","79","419987","0.0-79.0-0.0","","","","","[0,1]","1","1","342.5","1","1","[2,3]","1","3","240.89999997615814","0","[""#48a782"",""#955db9""]","[""#5f6f81"",""#7f5d5d""]","[1440,900]","1","75","[0.405,0.348,0.504,0.256]","0","0","false","","",""
"","","","","","two-step-instructions","80","423059","0.0-80.0","3070.199999988079","","","[{""page_index"":0,""viewing_time"":68.19999998807907},{""page_index"":1,""viewing_time"":3001.7000000476837}]","","","","","","","","","","","","","","","","","","","","","","",""
"","","","","","two-step-trial","81","426680","0.0-81.0-0.0","","","","","[0,1]","1","1","1264.6000000238419","0","0","[0,1]","0","0","340.80000001192093","0","[""#48a782"",""#955db9""]","[""#5f6f81"",""#7f5d5d""]","[1440,900]","1","76","[0.43,0.367,0.513,0.251]","0","0","false","","",""
"","","","","","two-step-trial","82","430064","0.0-82.0-0.0","","","","","[0,1]","1","1","692.8999999761581","1","1","[2,3]","0","2","673.8000000119209","0","[""#48a782"",""#955db9""]","[""#5f6f81"",""#7f5d5d""]","[1440,900]","1","77","[0.426,0.365,0.523,0.279]","0","0","false","","",""
"","","","","","two-step-trial","83","432866","0.0-83.0-0.0","","","","","[0,1]","0","0","598.3999999761581","0","1","[2,3]","0","2","186.30000001192093","0","[""#48a782"",""#955db9""]","[""#5f6f81"",""#7f5d5d""]","[1440,900]","1","78","[0.411,0.377,0.525,0.29]","0","0","false","","",""
"","","","","","two-step-trial","84","435603","0.0-84.0-0.0","","","","","[0,1]","1","1","418.39999997615814","1","1","[2,3]","1","3","307.10000002384186","0","[""#48a782"",""#955db9""]","[""#5f6f81"",""#7f5d5d""]","[1440,900]","1","79","[0.413,0.36,0.538,0.31]","0","0","false","","",""
"","","","","","two-step-trial","85","438209","0.0-85.0-0.0","","","","","[0,1]","0","0","330.5","1","0","[0,1]","1","1","262.4000000357628","1","[""#48a782"",""#955db9""]","[""#5f6f81"",""#7f5d5d""]","[1440,900]","1","80","[0.394,0.383,0.524,0.282]","0","0","false","","",""
"","","","","","two-step-trial","86","440867","0.0-86.0-0.0","","","","","[0,1]","0","0","285.39999997615814","1","0","[0,1]","1","1","358.19999998807907","0","[""#48a782"",""#955db9""]","[""#5f6f81"",""#7f5d5d""]","[1440,900]","1","81","[0.361,0.391,0.524,0.269]","0","0","false","","",""
"","","","","","two-step-trial","87","443409","0.0-87.0-0.0","","","","","[0,1]","0","0","276","1","0","[0,1]","0","0","250.5","1","[""#48a782"",""#955db9""]","[""#5f6f81"",""#7f5d5d""]","[1440,900]","1","82","[0.354,0.377,0.535,0.274]","0","0","false","","",""
"","","","","","two-step-trial","88","446128","0.0-88.0-0.0","","","","","[0,1]","0","0","318.89999997615814","1","0","[0,1]","0","0","383.30000001192093","0","[""#48a782"",""#955db9""]","[""#5f6f81"",""#7f5d5d""]","[1440,900]","1","83","[0.353,0.363,0.504,0.307]","0","0","false","","",""
"","","","","","two-step-trial","89","448674","0.0-89.0-0.0","","","","","[0,1]","0","0","377.2000000476837","1","0","[0,1]","1","1","152.30000001192093","0","[""#48a782"",""#955db9""]","[""#5f6f81"",""#7f5d5d""]","[1440,900]","1","84","[0.361,0.317,0.485,0.273]","0","0","false","","",""
"","","","","","two-step-trial","90","450983","0.0-90.0-0.0","","","","","[0,1]","0","0","51.89999997615814","1","0","[0,1]","1","1","242.29999995231628","1","[""#48a782"",""#955db9""]","[""#5f6f81"",""#7f5d5d""]","[1440,900]","1","85","[0.295,0.332,0.47,0.26]","0","0","false","","",""
"","","","","","two-step-trial","91","453505","0.0-91.0-0.0","","","","","[0,1]","0","0","343.5999999642372","1","0","[0,1]","1","1","163","0","[""#48a782"",""#955db9""]","[""#5f6f81"",""#7f5d5d""]","[1440,900]","1","86","[0.287,0.344,0.46,0.32]","0","0","false","","",""
"","","","","","two-step-trial","92","456122","0.0-92.0-0.0","","","","","[0,1]","1","1","405.19999998807907","1","1","[2,3]","1","3","192.30000001192093","1","[""#48a782"",""#955db9""]","[""#5f6f81"",""#7f5d5d""]","[1440,900]","1","87","[0.278,0.373,0.46,0.351]","0","0","false","","",""
"","","","","","two-step-trial","93","458937","0.0-93.0-0.0","","","","","[0,1]","1","1","341.2000000476837","1","1","[2,3]","1","3","460.80000001192093","0","[""#48a782"",""#955db9""]","[""#5f6f81"",""#7f5d5d""]","[1440,900]","1","88","[0.277,0.355,0.459,0.358]","0","0","false","","",""
"","","","","","two-step-trial","94","461563","0.0-94.0-0.0","","","","","[0,1]","1","1","480.89999997615814","1","1","[2,3]","1","3","126.30000001192093","0","[""#48a782"",""#955db9""]","[""#5f6f81"",""#7f5d5d""]","[1440,900]","1","89","[0.264,0.395,0.47,0.338]","0","0","false","","",""
"","","","","","two-step-trial","95","463919","0.0-95.0-0.0","","","","","[0,1]","1","1","114.60000002384186","1","1","[2,3]","1","3","230","1","[""#48a782"",""#955db9""]","[""#5f6f81"",""#7f5d5d""]","[1440,900]","1","90","[0.258,0.389,0.495,0.348]","0","0","false","","",""
"","","","","","two-step-trial","96","466528","0.0-96.0-0.0","","","","","[0,1]","1","1","260.39999997615814","1","1","[2,3]","1","3","334.89999997615814","0","[""#48a782"",""#955db9""]","[""#5f6f81"",""#7f5d5d""]","[1440,900]","1","91","[0.325,0.363,0.524,0.356]","0","0","false","","",""
"","","","","","two-step-trial","97","469009","0.0-97.0-0.0","","","","","[0,1]","1","1","97.59999996423721","1","1","[2,3]","0","2","366.5","1","[""#48a782"",""#955db9""]","[""#5f6f81"",""#7f5d5d""]","[1440,900]","1","92","[0.29,0.354,0.524,0.361]","0","0","false","","",""
"","","","","","two-step-trial","98","471283","0.0-98.0-0.0","","","","","[0,1]","0","0","196.10000002384186","1","0","[0,1]","0","0","64.20000004768372","1","[""#48a782"",""#955db9""]","[""#5f6f81"",""#7f5d5d""]","[1440,900]","1","93","[0.318,0.353,0.542,0.336]","0","0","false","","",""
"","","","","","two-step-trial","99","473495","0.0-99.0-0.0","","","","","[0,1]","0","0","151","1","0","[0,1]","0","0","49.80000001192093","1","[""#48a782"",""#955db9""]","[""#5f6f81"",""#7f5d5d""]","[1440,900]","1","94","[0.329,0.367,0.542,0.302]","0","0","false","","",""
"","","","","","two-step-trial","100","475689","0.0-100.0-0.0","","","","","[0,1]","0","0","74.89999997615814","1","0","[0,1]","0","0","108.19999998807907","0","[""#48a782"",""#955db9""]","[""#5f6f81"",""#7f5d5d""]","[1440,900]","1","95","[0.348,0.33,0.586,0.265]","0","0","false","","",""
"","","","","","two-step-trial","101","477747","0.0-101.0-0.0","","","","","[0,1]","0","0","20.900000035762787","1","0","[0,1]","0","0","15.900000035762787","0","[""#48a782"",""#955db9""]","[""#5f6f81"",""#7f5d5d""]","[1440,900]","1","96","[0.348,0.348,0.591,0.304]","0","0","false","","",""
"","","","","","two-step-trial","102","480334","0.0-102.0-0.0","","","","","[0,1]","0","0","231.30000001192093","1","0","[0,1]","0","0","348.10000002384186","0","[""#48a782"",""#955db9""]","[""#5f6f81"",""#7f5d5d""]","[1440,900]","1","97","[0.328,0.258,0.639,0.303]","0","0","false","","",""
"","","","","","two-step-trial","103","482871","0.0-103.0-0.0","","","","","[0,1]","0","0","268.69999998807907","1","0","[0,1]","0","0","257.2000000476837","0","[""#48a782"",""#955db9""]","[""#5f6f81"",""#7f5d5d""]","[1440,900]","1","98","[0.381,0.256,0.661,0.29]","0","0","false","","",""
"","","","","","two-step-trial","104","485280","0.0-104.0-0.0","","","","","[0,1]","0","0","196.19999998807907","0","1","[2,3]","0","2","201.5","0","[""#48a782"",""#955db9""]","[""#5f6f81"",""#7f5d5d""]","[1440,900]","1","99","[0.423,0.312,0.659,0.319]","0","0","false","","",""
"","","","","","two-step-trial","105","502569","0.0-105.0-0.0","","","","","[0,1]","null","null","null","1","null","[0,1]","null","null","null","null","[""#48a782"",""#955db9""]","[""#5f6f81"",""#7f5d5d""]","[1440,900]","1","100","[0.419,0.326,0.615,0.332]","0","1","true","","",""
"","","","","","two-step-trial","106","508283","0.0-105.1-0.1","","","","","[0,1]","1","1","3423.100000023842","1","1","[2,3]","1","3","277.80000001192093","0","[""#48a782"",""#955db9""]","[""#5f6f81"",""#7f5d5d""]","[1440,900]","1","100","[0.419,0.326,0.615,0.332]","0","1","false","","",""
"","","","","","two-step-trial","107","510510","0.0-106.0-0.0","","","","","[0,1]","1","1","164.70000004768372","1","1","[2,3]","0","2","45","1","[""#48a782"",""#955db9""]","[""#5f6f81"",""#7f5d5d""]","[1440,900]","1","101","[0.406,0.305,0.562,0.356]","0","0","false","","",""
"","","","","","two-step-trial","108","513018","0.0-107.0-0.0","","","","","[0,1]","0","0","190.10000002384186","0","1","[2,3]","0","2","302.89999997615814","0","[""#48a782"",""#955db9""]","[""#5f6f81"",""#7f5d5d""]","[1440,900]","1","102","[0.412,0.303,0.532,0.328]","0","0","false","","",""
"","","","","","two-step-trial","109","515385","0.0-108.0-0.0","","","","","[0,1]","0","0","144","0","1","[2,3]","1","3","212.80000001192093","0","[""#48a782"",""#955db9""]","[""#5f6f81"",""#7f5d5d""]","[1440,900]","1","103","[0.399,0.326,0.531,0.314]","0","0","false","","",""
"","","","","","two-step-trial","110","517518","0.0-109.0-0.0","","","","","[0,1]","1","1","110.90000003576279","0","0","[0,1]","1","1","11.699999988079071","0","[""#48a782"",""#955db9""]","[""#5f6f81"",""#7f5d5d""]","[1440,900]","1","104","[0.398,0.313,0.576,0.303]","0","0","false","","",""
"","","","","","two-step-trial","111","519702","0.0-110.0-0.0","","","","","[0,1]","0","0","84.5","0","1","[2,3]","0","2","87.10000002384186","0","[""#48a782"",""#955db9""]","[""#5f6f81"",""#7f5d5d""]","[1440,900]","1","105","[0.41,0.34,0.593,0.316]","0","0","false","","",""
"","","","","","two-step-trial","112","522263","0.0-111.0-0.0","","","","","[0,1]","0","0","256","1","0","[0,1]","0","0","297.4000000357628","0","[""#48a782"",""#955db9""]","[""#5f6f81"",""#7f5d5d""]","[1440,900]","1","106","[0.402,0.333,0.57,0.322]","0","0","false","","",""
"","","","","","two-step-trial","113","524840","0.0-112.0-0.0","","","","","[0,1]","0","0","389.5999999642372","0","1","[2,3]","1","3","173.4000000357628","0","[""#48a782"",""#955db9""]","[""#5f6f81"",""#7f5d5d""]","[1440,900]","1","107","[0.408,0.274,0.566,0.316]","0","0","false","","",""
"","","","","","two-step-trial","114","527246","0.0-113.0-0.0","","","","","[0,1]","0","0","304.30000001192093","1","0","[0,1]","0","0","88.19999998807907","0","[""#48a782"",""#955db9""]","[""#5f6f81"",""#7f5d5d""]","[1440,900]","1","108","[0.426,0.262,0.552,0.283]","0","0","false","","",""
"","","","","","two-step-trial","115","529687","0.0-114.0-0.0","","","","","[0,1]","0","0","285.30000001192093","1","0","[0,1]","1","1","142.60000002384186","0","[""#48a782"",""#955db9""]","[""#5f6f81"",""#7f5d5d""]","[1440,900]","1","109","[0.4,0.265,0.503,0.284]","0","0","false","","",""
"","","","","","two-step-trial","116","532226","0.0-115.0-0.0","","","","","[0,1]","0","0","268.69999998807907","1","0","[0,1]","0","0","250","0","[""#48a782"",""#955db9""]","[""#5f6f81"",""#7f5d5d""]","[1440,900]","1","110","[0.389,0.286,0.517,0.318]","0","0","false","","",""
"","","","","","two-step-trial","117","534691","0.0-116.0-0.0","","","","","[0,1]","0","0","82.5","1","0","[0,1]","0","0","361.5","0","[""#48a782"",""#955db9""]","[""#5f6f81"",""#7f5d5d""]","[1440,900]","1","111","[0.389,0.289,0.505,0.348]","0","0","false","","",""
"","","","","","two-step-trial","118","537200","0.0-117.0-0.0","","","","","[0,1]","0","0","123.89999997615814","0","1","[2,3]","0","2","373.5999999642372","1","[""#48a782"",""#955db9""]","[""#5f6f81"",""#7f5d5d""]","[1440,900]","1","112","[0.387,0.265,0.506,0.329]","0","0","false","","",""
"","","","","","two-step-trial","119","539887","0.0-118.0-0.0","","","","","[0,1]","0","0","413.89999997615814","0","1","[2,3]","0","2","260.9000000357628","1","[""#48a782"",""#955db9""]","[""#5f6f81"",""#7f5d5d""]","[1440,900]","1","113","[0.384,0.256,0.524,0.353]","0","0","false","","",""
"","","","","","two-step-trial","120","542814","0.0-119.0-0.0","","","","","[0,1]","0","0","682.8000000119209","1","0","[0,1]","0","0","233.10000002384186","0","[""#48a782"",""#955db9""]","[""#5f6f81"",""#7f5d5d""]","[1440,900]","1","114","[0.367,0.273,0.512,0.348]","0","0","false","","",""
"","","","","","two-step-trial","121","545403","0.0-120.0-0.0","","","","","[0,1]","0","0","296.5999999642372","0","1","[2,3]","0","2","274.5","1","[""#48a782"",""#955db9""]","[""#5f6f81"",""#7f5d5d""]","[1440,900]","1","115","[0.323,0.276,0.502,0.358]","0","0","false","","",""
"","","","","","two-step-trial","122","547673","0.0-121.0-0.0","","","","","[0,1]","1","1","229.60000002384186","0","0","[0,1]","1","1","17.30000001192093","0","[""#48a782"",""#955db9""]","[""#5f6f81"",""#7f5d5d""]","[1440,900]","1","116","[0.327,0.301,0.482,0.366]","0","0","false","","",""
"","","","","","two-step-trial","123","549879","0.0-122.0-0.0","","","","","[0,1]","1","1","78.60000002384186","0","0","[0,1]","1","1","106.80000001192093","0","[""#48a782"",""#955db9""]","[""#5f6f81"",""#7f5d5d""]","[1440,900]","1","117","[0.356,0.324,0.447,0.405]","0","0","false","","",""
"","","","","","two-step-trial","124","552627","0.0-123.0-0.0","","","","","[0,1]","1","1","359.2999999523163","1","1","[2,3]","1","3","373.19999998807907","0","[""#48a782"",""#955db9""]","[""#5f6f81"",""#7f5d5d""]","[1440,900]","1","118","[0.346,0.346,0.451,0.456]","0","0","false","","",""
"","","","","","two-step-trial","125","555242","0.0-124.0-0.0","","","","","[0,1]","1","1","116.69999998807907","1","1","[2,3]","1","3","481.7000000476837","0","[""#48a782"",""#955db9""]","[""#5f6f81"",""#7f5d5d""]","[1440,900]","1","119","[0.307,0.341,0.511,0.496]","0","0","false","","",""
"","","","","","two-step-trial","126","557524","0.0-125.0-0.0","","","","","[0,1]","1","1","258.2000000476837","1","1","[2,3]","1","3","4.400000035762787","0","[""#48a782"",""#955db9""]","[""#5f6f81"",""#7f5d5d""]","[1440,900]","1","120","[0.301,0.307,0.523,0.5]","0","0","false","","",""
"","","","","","two-step-trial","127","560009","0.0-126.0-0.0","","","","","[0,1]","1","1","458.5","1","1","[2,3]","1","3","8","1","[""#48a782"",""#955db9""]","[""#5f6f81"",""#7f5d5d""]","[1440,900]","1","121","[0.288,0.297,0.519,0.491]","0","0","false","","",""
"","","","","","two-step-trial","128","562585","0.0-127.0-0.0","","","","","[0,1]","1","1","71.29999995231628","1","1","[2,3]","1","3","489.69999998807907","0","[""#48a782"",""#955db9""]","[""#5f6f81"",""#7f5d5d""]","[1440,900]","1","122","[0.275,0.313,0.525,0.507]","0","0","false","","",""
"","","","","","two-step-trial","129","565306","0.0-128.0-0.0","","","","","[0,1]","0","0","343.69999998807907","1","0","[0,1]","0","0","363.69999998807907","1","[""#48a782"",""#955db9""]","[""#5f6f81"",""#7f5d5d""]","[1440,900]","1","123","[0.288,0.279,0.473,0.464]","0","0","false","","",""
"","","","","","two-step-trial","130","568243","0.0-129.0-0.0","","","","","[0,1]","1","1","423.7000000476837","1","1","[2,3]","1","3","498.5","1","[""#48a782"",""#955db9""]","[""#5f6f81"",""#7f5d5d""]","[1440,900]","1","124","[0.287,0.296,0.496,0.443]","0","0","false","","",""
"","","","","","two-step-trial","131","570793","0.0-130.0-0.0","","","","","[0,1]","1","1","249.4000000357628","1","1","[2,3]","0","2","278.30000001192093","0","[""#48a782"",""#955db9""]","[""#5f6f81"",""#7f5d5d""]","[1440,900]","1","125","[0.26,0.276,0.477,0.451]","0","0","false","","",""
"","","","","","two-step-trial","132","573325","0.0-131.0-0.0","","","","","[0,1]","1","1","214.80000001192093","1","1","[2,3]","0","2","303.9000000357628","1","[""#48a782"",""#955db9""]","[""#5f6f81"",""#7f5d5d""]","[1440,900]","1","126","[0.283,0.285,0.494,0.477]","0","0","false","","",""
"","","","","","two-step-trial","133","575942","0.0-132.0-0.0","","","","","[0,1]","0","0","345.39999997615814","1","0","[0,1]","0","0","258.69999998807907","1","[""#48a782"",""#955db9""]","[""#5f6f81"",""#7f5d5d""]","[1440,900]","1","127","[0.285,0.251,0.493,0.518]","0","0","false","","",""
"","","","","","two-step-trial","134","578121","0.0-133.0-0.0","","","","","[0,1]","1","1","11.100000023841858","0","0","[0,1]","0","0","154.20000004768372","0","[""#48a782"",""#955db9""]","[""#5f6f81"",""#7f5d5d""]","[1440,900]","1","128","[0.285,0.278,0.495,0.479]","0","0","false","","",""
"","","","","","two-step-trial","135","580983","0.0-134.0-0.0","","","","","[0,1]","0","0","416.5999999642372","0","1","[2,3]","1","3","436.60000002384186","0","[""#48a782"",""#955db9""]","[""#5f6f81"",""#7f5d5d""]","[1440,900]","1","129","[0.304,0.316,0.486,0.459]","0","0","false","","",""
"","","","","","two-step-trial","136","583634","0.0-135.0-0.0","","","","","[0,1]","0","0","490.19999998807907","1","0","[0,1]","0","0","143.60000002384186","0","[""#48a782"",""#955db9""]","[""#5f6f81"",""#7f5d5d""]","[1440,900]","1","130","[0.279,0.291,0.485,0.452]","0","0","false","","",""
"","","","","","two-step-trial","137","586069","0.0-136.0-0.0","","","","","[0,1]","0","0","293","1","0","[0,1]","0","0","117.90000003576279","0","[""#48a782"",""#955db9""]","[""#5f6f81"",""#7f5d5d""]","[1440,900]","1","131","[0.257,0.293,0.476,0.442]","0","0","false","","",""
"","","","","","two-step-trial","138","588301","0.0-137.0-0.0","","","","","[0,1]","1","1","167.19999998807907","0","0","[0,1]","1","1","57.200000047683716","1","[""#48a782"",""#955db9""]","[""#5f6f81"",""#7f5d5d""]","[1440,900]","1","132","[0.267,0.335,0.408,0.456]","0","0","false","","",""
"","","","","","two-step-trial","139","590705","0.0-138.0-0.0","","","","","[0,1]","1","1","359.89999997615814","1","1","[2,3]","1","3","31.399999976158142","0","[""#48a782"",""#955db9""]","[""#5f6f81"",""#7f5d5d""]","[1440,900]","1","133","[0.254,0.359,0.444,0.42]","0","0","false","","",""
"","","","","","two-step-trial","140","593240","0.0-139.0-0.0","","","","","[0,1]","0","0","282.60000002384186","1","0","[0,1]","0","0","239.10000002384186","1","[""#48a782"",""#955db9""]","[""#5f6f81"",""#7f5d5d""]","[1440,900]","1","134","[0.265,0.371,0.443,0.419]","0","0","false","","",""
"","","","","","two-step-trial","141","595777","0.0-140.0-0.0","","","","","[0,1]","1","1","445.5","1","1","[2,3]","1","3","83","0","[""#48a782"",""#955db9""]","[""#5f6f81"",""#7f5d5d""]","[1440,900]","1","135","[0.272,0.34,0.465,0.386]","0","0","false","","",""
"","","","","","two-step-trial","142","597857","0.0-141.0-0.0","","","","","[0,1]","1","1","0.10000002384185791","0","0","[0,1]","0","0","62.5","0","[""#48a782"",""#955db9""]","[""#5f6f81"",""#7f5d5d""]","[1440,900]","1","136","[0.291,0.34,0.503,0.372]","0","0","false","","",""
"","","","","","two-step-trial","143","600322","0.0-142.0-0.0","","","","","[0,1]","0","0","405.89999997615814","1","0","[0,1]","0","0","53.89999997615814","0","[""#48a782"",""#955db9""]","[""#5f6f81"",""#7f5d5d""]","[1440,900]","1","137","[0.25,0.307,0.498,0.357]","0","0","false","","",""
"","","","","","two-step-trial","144","602922","0.0-143.0-0.0","","","","","[0,1]","0","0","250.69999998807907","0","1","[2,3]","0","2","338","0","[""#48a782"",""#955db9""]","[""#5f6f81"",""#7f5d5d""]","[1440,900]","1","138","[0.265,0.293,0.462,0.319]","0","0","false","","",""
"","","","","","two-step-trial","145","605522","0.0-144.0-0.0","","","","","[0,1]","1","1","292.2999999523163","1","1","[2,3]","1","3","296.19999998807907","0","[""#48a782"",""#955db9""]","[""#5f6f81"",""#7f5d5d""]","[1440,900]","1","139","[0.268,0.317,0.494,0.325]","0","0","false","","",""
"","","","","","two-step-trial","146","607727","0.0-145.0-0.0","","","","","[0,1]","0","0","171.9000000357628","1","0","[0,1]","0","0","16.599999964237213","1","[""#48a782"",""#955db9""]","[""#5f6f81"",""#7f5d5d""]","[1440,900]","1","140","[0.276,0.319,0.471,0.343]","0","0","false","","",""
"","","","","","two-step-trial","147","609911","0.0-146.0-0.0","","","","","[0,1]","0","0","104.30000001192093","1","0","[0,1]","0","0","63.19999998807907","1","[""#48a782"",""#955db9""]","[""#5f6f81"",""#7f5d5d""]","[1440,900]","1","141","[0.261,0.318,0.465,0.338]","0","0","false","","",""
"","","","","","two-step-trial","148","612239","0.0-147.0-0.0","","","","","[0,1]","0","0","305.39999997615814","0","1","[2,3]","0","2","14","1","[""#48a782"",""#955db9""]","[""#5f6f81"",""#7f5d5d""]","[1440,900]","1","142","[0.269,0.269,0.465,0.359]","0","0","false","","",""
"","","","","","two-step-trial","149","614380","0.0-148.0-0.0","","","","","[0,1]","0","0","48","0","1","[2,3]","0","2","75.80000001192093","0","[""#48a782"",""#955db9""]","[""#5f6f81"",""#7f5d5d""]","[1440,900]","1","143","[0.288,0.255,0.464,0.364]","0","0","false","","",""
"","","","","","two-step-trial","150","616837","0.0-149.0-0.0","","","","","[0,1]","0","0","275.69999998807907","1","0","[0,1]","0","0","173.69999998807907","1","[""#48a782"",""#955db9""]","[""#5f6f81"",""#7f5d5d""]","[1440,900]","1","144","[0.311,0.284,0.439,0.335]","0","0","false","","",""
"","","","","","two-step-trial","151","619451","0.0-150.0-0.0","","","","","[0,1]","0","0","183.5","1","0","[0,1]","0","0","422.19999998807907","0","[""#48a782"",""#955db9""]","[""#5f6f81"",""#7f5d5d""]","[1440,900]","1","145","[0.291,0.284,0.413,0.345]","0","0","false","","",""
"","","","","","two-step-trial","152","621715","0.0-151.0-0.0","","","","","[0,1]","0","0","7.300000011920929","0","1","[2,3]","0","2","234.89999997615814","0","[""#48a782"",""#955db9""]","[""#5f6f81"",""#7f5d5d""]","[1440,900]","1","146","[0.289,0.292,0.421,0.344]","0","0","false","","",""
"","","","","","two-step-trial","153","624151","0.0-152.0-0.0","","","","","[0,1]","1","1","180.69999998807907","1","1","[2,3]","1","3","242.89999997615814","0","[""#48a782"",""#955db9""]","[""#5f6f81"",""#7f5d5d""]","[1440,900]","1","147","[0.299,0.296,0.457,0.356]","0","0","false","","",""
"","","","","","two-step-trial","154","626571","0.0-153.0-0.0","","","","","[0,1]","1","1","40.30000001192093","1","1","[2,3]","1","3","369.30000001192093","1","[""#48a782"",""#955db9""]","[""#5f6f81"",""#7f5d5d""]","[1440,900]","1","148","[0.264,0.313,0.451,0.366]","0","0","false","","",""
"","","","","","two-step-trial","155","628766","0.0-154.0-0.0","","","","","[0,1]","1","1","2.699999988079071","1","1","[2,3]","1","3","175.5999999642372","0","[""#48a782"",""#955db9""]","[""#5f6f81"",""#7f5d5d""]","[1440,900]","1","149","[0.272,0.36,0.455,0.385]","0","0","false","","",""
"","","","","","two-step-trial","156","631347","0.0-155.0-0.0","","","","","[0,1]","1","1","329.10000002384186","1","1","[2,3]","1","3","241.5","0","[""#48a782"",""#955db9""]","[""#5f6f81"",""#7f5d5d""]","[1440,900]","1","150","[0.282,0.392,0.477,0.39]","0","0","false","","",""
"","","","","","two-step-instructions","157","631583","0.0-156.0","233.30000001192093","","","[{""page_index"":0,""viewing_time"":233.0999999642372}]","","","","","","","","","","","","","","","","","","","","","","",""
"","","","","","two-step-comprehension","158","635728","0.0-157.0","4141.199999988079","","","","","","","","","","","","","","","","","","","","","","","","[""purple"",""purple""]","1","[{""event"":""blur"",""trial"":1,""time"":571},{""event"":""focus"",""trial"":1,""time"":181584},{""event"":""fullscreenenter"",""trial"":1,""time"":184704},{""event"":""blur"",""trial"":65,""time"":356699},{""event"":""focus"",""trial"":66,""time"":377445},{""event"":""blur"",""trial"":105,""time"":485858},{""event"":""focus"",""trial"":106,""time"":505902}]"
