"success","timeout","failed_images","failed_audio","failed_video","trial_type","trial_index","time_elapsed","internal_node_id","rt","stimulus","response","view_history","responses","num_errors","quiz","phase","state_2_ids","state_2_key","state_2_choice","state_2_rt","outcome","screen_resolution","minimum_resolution","state_1_ids","state_1_key","state_1_choice","state_1_rt","transition","state","rocket_colors","planet_colors","trial","missing","drifts","drift_ix","browser_interactions","interactions"
"true","false","[]","[]","[]","preload","0","301","0.0-0.0","","","","","","","","","","","","","","","","","","","","","","","","","","","","",""
"true","","","","","fullscreen","1","2955","0.0-1.0","","","","","","","","","","","","","","","","","","","","","","","","","","","","",""
"","","","","","html-keyboard-response","2","7906","0.0-2.0","4949.899999976158","<p>You are starting a demo of the <b>two-step task.</b></p><p>To see the instructions, press the ""1"" key. To skip them, press the ""2"" key.</p>","1","","","","","","","","","","","","","","","","","","","","","","","","","",""
"","","","","","two-step-instructions","3","33195","0.0-3.0-0.0-1.0","25288.09999999404","","","[{""page_index"":0,""viewing_time"":2620.4000000059605},{""page_index"":1,""viewing_time"":1255.8999999761581},{""page_index"":2,""viewing_time"":916.3000000119209},{""page_index"":3,""viewing_time"":2953.9000000059605},{""page_index"":4,""viewing_time"":4267.0999999940395},{""page_index"":5,""viewing_time"":1252.300000011921},{""page_index"":6,""viewing_time"":988.8999999761581},{""page_index"":7,""viewing_time"":3664.600000023842},{""page_index"":8,""viewing_time"":2962.699999988079},{""page_index"":9,""viewing_time"":572.8000000119209},{""page_index"":8,""viewing_time"":853.0999999940395},{""page_index"":9,""viewing_time"":1773.4000000059605},{""page_index"":10,""viewing_time"":1206.2999999821186}]","","","","","","","","","","","","","","","","","","","","","","","","",""
"","","","","","two-step-comprehension","4","46931","0.0-3.0-0.0-2.0","13732.90000000596","","","","[""left/right arrow keys"",""True"",""True""]","0","1","","","","","","","","","","","","","","","","","","","","","",""
"","","","","","two-step-instructions","5","50653","0.0-3.0-1.0-0.0-0.0","3716.600000023842","","","[{""page_index"":0,""viewing_time"":3716.300000011921}]","","","","instructions_1b","","","","","","","","","","","","","","","","","","","","",""
"","","","","","alien-practice","6","54682","0.0-3.0-1.0-1.0-0.0","","","","","","","","","[0,1]","1","1","1804.699999988079","1","[1440,900]","1","","","","","","","","","","","","","",""
"","","","","","alien-practice","7","57915","0.0-3.0-1.0-2.0-0.0","","","","","","","","","[0,1]","1","1","1015","0","[1440,900]","1","","","","","","","","","","","","","",""
"","","","","","alien-practice","8","60832","0.0-3.0-1.0-3.0-0.0","","","","","","","","","[0,1]","1","1","703.1999999880791","1","[1440,900]","1","","","","","","","","","","","","","",""
"","","","","","alien-practice","9","63507","0.0-3.0-1.0-4.0-0.0","","","","","","","","","[0,1]","1","1","454.5","1","[1440,900]","1","","","","","","","","","","","","","",""
"","","","","","alien-practice","10","66103","0.0-3.0-1.0-5.0-0.0","","","","","","","","","[0,1]","1","1","376.30000001192093","1","[1440,900]","1","","","","","","","","","","","","","",""
"","","","","","two-step-instructions","11","79639","0.0-3.0-2.0-1.0","13533.90000000596","","","[{""page_index"":0,""viewing_time"":3121.699999988079},{""page_index"":1,""viewing_time"":1239.5999999940395},{""page_index"":2,""viewing_time"":2683.2000000178814},{""page_index"":3,""viewing_time"":3040.199999988079},{""page_index"":4,""viewing_time"":1550.5},{""page_index"":5,""viewing_time"":1898.4000000059605}]","","","","","","","","","","","","","","","","","","","","","","","","",""
"","","","","","two-step-comprehension","12","86099","0.0-3.0-2.0-2.0","6457","","","","[""left/right arrow keys"",""False"",""True""]","0","2","","","","","","","","","","","","","","","","","","","","","",""
"","","","","","two-step-instructions","13","97517","0.0-3.0-3.0-0.0","11415.399999976158","","","[{""page_index"":0,""viewing_time"":3875.5},{""page_index"":1,""viewing_time"":2813.399999976158},{""page_index"":2,""viewing_time"":4726}]","","","","","","","","","","","","","","","","","","","","","","","","",""
"","","","","","two-step-trial","14","102881","0.0-3.0-3.0-1.0-0.0","","","","","","","","","[2,3]","1","3","2467.600000023842","1","[1440,900]","1","[0,1]","1","1","875.6999999880791","1","1","[""#a75248"",""#486ea7""]","[""#5b7c65"",""#706081""]","0","false","","","",""
"","","","","","two-step-trial","15","106022","0.0-3.0-3.0-1.0-0.1","","","","","","","","","[2,3]","1","3","495.90000000596046","1","[1440,900]","1","[0,1]","1","1","631.0999999940395","1","1","[""#a75248"",""#486ea7""]","[""#5b7c65"",""#706081""]","0","false","","","",""
"","","","","","two-step-trial","16","108779","0.0-3.0-3.0-1.0-0.2","","","","","","","","","[2,3]","1","3","406.59999999403954","1","[1440,900]","1","[0,1]","1","1","328.89999997615814","1","1","[""#a75248"",""#486ea7""]","[""#5b7c65"",""#706081""]","0","false","","","",""
"","","","","","two-step-trial","17","111784","0.0-3.0-3.0-1.0-0.3","","","","","","","","","[2,3]","1","3","443.5","0","[1440,900]","1","[0,1]","1","1","548.2000000178814","1","1","[""#a75248"",""#486ea7""]","[""#5b7c65"",""#706081""]","0","false","","","",""
"","","","","","two-step-trial","18","115082","0.0-3.0-3.0-1.0-0.4","","","","","","","","","[2,3]","1","3","850.2999999821186","1","[1440,900]","1","[0,1]","1","1","433.89999997615814","1","1","[""#a75248"",""#486ea7""]","[""#5b7c65"",""#706081""]","0","false","","","",""
"","","","","","two-step-trial","19","117846","0.0-3.0-3.0-1.0-0.5","","","","","","","","","[2,3]","1","3","311","1","[1440,900]","1","[0,1]","1","1","445.90000000596046","1","1","[""#a75248"",""#486ea7""]","[""#5b7c65"",""#706081""]","0","false","","","",""
"","","","","","two-step-trial","20","120830","0.0-3.0-3.0-1.0-0.6","","","","","","","","","[2,3]","1","3","455.80000001192093","0","[1440,900]","1","[0,1]","1","1","515.8000000119209","1","1","[""#a75248"",""#486ea7""]","[""#5b7c65"",""#706081""]","0","false","","","",""
"","","","","","two-step-trial","21","123679","0.0-3.0-3.0-1.0-0.7","","","","","","","","","[2,3]","1","3","441.30000001192093","1","[1440,900]","1","[0,1]","1","1","392.19999998807907","1","1","[""#a75248"",""#486ea7""]","[""#5b7c65"",""#706081""]","0","false","","","",""
"","","","","","two-step-trial","22","126435","0.0-3.0-3.0-1.0-0.8","","","","","","","","","[2,3]","1","3","421.40000000596046","1","[1440,900]","1","[0,1]","1","1","315.09999999403954","1","1","[""#a75248"",""#486ea7""]","[""#5b7c65"",""#706081""]","0","false","","","",""
"","","","","","two-step-trial","23","129938","0.0-3.0-3.0-1.0-0.9","","","","","","","","","[2,3]","1","3","973.2999999821186","0","[1440,900]","1","[0,1]","1","1","509.7999999821186","1","1","[""#a75248"",""#486ea7""]","[""#5b7c65"",""#706081""]","0","false","","","",""
"","","","","","two-step-instructions","24","154223","0.0-3.0-4.0-1.0","24281.79999998212","","","[{""page_index"":0,""viewing_time"":2187.0999999940395},{""page_index"":1,""viewing_time"":3654.9000000059605},{""page_index"":2,""viewing_time"":946},{""page_index"":3,""viewing_time"":1247.0999999940395},{""page_index"":4,""viewing_time"":6507.300000011921},{""page_index"":5,""viewing_time"":6058.199999988079},{""page_index"":6,""viewing_time"":3681}]","","","","","","","","","","","","","","","","","","","","","","","","",""
"","","","","","two-step-comprehension","25","161164","0.0-3.0-4.0-2.0","6938.5999999940395","","","","[""True"",""False"",""True""]","0","3","","","","","","","","","","","","","","","","","","","","","",""
"","","","","","two-step-instructions","26","166032","0.0-4.0","4865.200000017881","","","[{""page_index"":0,""viewing_time"":1169.7000000178814},{""page_index"":1,""viewing_time"":1648.3999999761581},{""page_index"":2,""viewing_time"":2047}]","","","","","","","","","","","","","","","","","","","","","","","","",""
"","","","","","two-step-trial","27","170798","0.0-5.0-0.0","","","","","","","","","[0,1]","0","0","1399.199999988079","0","[1440,900]","1","[0,1]","0","0","1350.199999988079","1","0","[""#48a782"",""#955db9""]","[""#7f5d5d"",""#5f6f81""]","1","false","[0.305,0.438,0.598,0.713]","3","0",""
"","","","","","two-step-trial","28","174266","0.0-6.0-0.0","","","","","","","","","[0,1]","1","1","1029.300000011921","1","[1440,900]","1","[0,1]","0","0","429.59999999403954","1","0","[""#48a782"",""#955db9""]","[""#7f5d5d"",""#5f6f81""]","2","false","[0.326,0.396,0.598,0.702]","3","0",""
"","","","","","two-step-trial","29","177184","0.0-7.0-0.0","","","","","","","","","[0,1]","1","1","459.69999998807907","0","[1440,900]","1","[0,1]","0","0","444.5","1","0","[""#48a782"",""#955db9""]","[""#7f5d5d"",""#5f6f81""]","3","false","[0.302,0.426,0.576,0.736]","3","0",""
"","","","","","two-step-trial","30","179834","0.0-8.0-0.0","","","","","","","","","[2,3]","1","3","361.09999999403954","1","[1440,900]","1","[0,1]","0","0","271.7999999821186","0","1","[""#48a782"",""#955db9""]","[""#7f5d5d"",""#5f6f81""]","4","false","[0.362,0.43,0.582,0.702]","3","0",""
"","","","","","two-step-trial","31","183486","0.0-9.0-0.0","","","","","","","","","[2,3]","1","3","835.5","1","[1440,900]","1","[0,1]","0","0","805.6999999880791","0","1","[""#48a782"",""#955db9""]","[""#7f5d5d"",""#5f6f81""]","5","false","[0.368,0.485,0.615,0.711]","3","0",""
"","","","","","two-step-trial","32","187178","0.0-10.0-0.0","","","","","","","","","[0,1]","1","1","770.2000000178814","1","[1440,900]","1","[0,1]","0","0","903.9000000059605","1","0","[""#48a782"",""#955db9""]","[""#7f5d5d"",""#5f6f81""]","6","false","[0.404,0.486,0.616,0.744]","3","0",""
"","","","","","two-step-trial","33","190630","0.0-11.0-0.0","","","","","","","","","[0,1]","1","1","883.7000000178814","0","[1440,900]","1","[0,1]","0","0","554.3000000119209","1","0","[""#48a782"",""#955db9""]","[""#7f5d5d"",""#5f6f81""]","7","false","[0.387,0.453,0.558,0.725]","3","0",""
"","","","","","two-step-trial","34","193670","0.0-12.0-0.0","","","","","","","","","[0,1]","1","1","634.7000000178814","0","[1440,900]","1","[0,1]","0","0","396.7999999821186","1","0","[""#48a782"",""#955db9""]","[""#7f5d5d"",""#5f6f81""]","8","false","[0.438,0.474,0.539,0.737]","3","0",""
"","","","","","two-step-trial","35","196974","0.0-13.0-0.0","","","","","","","","","[0,1]","0","0","996.2999999821186","1","[1440,900]","1","[0,1]","0","0","299.59999999403954","1","0","[""#48a782"",""#955db9""]","[""#7f5d5d"",""#5f6f81""]","9","false","[0.459,0.489,0.53,0.714]","3","0",""
"","","","","","two-step-trial","36","200298","0.0-14.0-0.0","","","","","","","","","[0,1]","0","0","760.3000000119209","1","[1440,900]","1","[0,1]","0","0","549.7000000178814","1","0","[""#48a782"",""#955db9""]","[""#7f5d5d"",""#5f6f81""]","10","false","[0.45,0.506,0.534,0.707]","3","0",""
"","","","","","two-step-trial","37","203269","0.0-15.0-0.0","","","","","","","","","[0,1]","0","0","450.5","1","[1440,900]","1","[0,1]","0","0","510.7999999821186","1","0","[""#48a782"",""#955db9""]","[""#7f5d5d"",""#5f6f81""]","11","false","[0.425,0.476,0.477,0.71]","3","0",""
"","","","","","two-step-trial","38","206872","0.0-16.0-0.0","","","","","","","","","[2,3]","1","3","998.6999999880791","1","[1440,900]","1","[0,1]","1","1","583","1","1","[""#48a782"",""#955db9""]","[""#7f5d5d"",""#5f6f81""]","12","false","[0.397,0.483,0.492,0.681]","3","0",""
"","","","","","two-step-trial","39","210079","0.0-17.0-0.0","","","","","","","","","[2,3]","1","3","659.0999999940395","1","[1440,900]","1","[0,1]","1","1","539","1","1","[""#48a782"",""#955db9""]","[""#7f5d5d"",""#5f6f81""]","13","false","[0.407,0.496,0.476,0.697]","3","0",""
"","","","","","two-step-trial","40","214462","0.0-18.0-0.0","","","","","","","","","[0,1]","0","0","2006.699999988079","0","[1440,900]","1","[0,1]","1","1","362.90000000596046","0","0","[""#48a782"",""#955db9""]","[""#7f5d5d"",""#5f6f81""]","14","false","[0.369,0.494,0.493,0.747]","3","0",""
"","","","","","two-step-trial","41","217592","0.0-19.0-0.0","","","","","","","","","[0,1]","1","1","505.5","0","[1440,900]","1","[0,1]","1","1","608.5999999940395","0","0","[""#48a782"",""#955db9""]","[""#7f5d5d"",""#5f6f81""]","15","false","[0.342,0.537,0.465,0.735]","3","0",""
"","","","","","two-step-trial","42","221578","0.0-20.0-0.0","","","","","","","","","[2,3]","1","3","1260.800000011921","1","[1440,900]","1","[0,1]","1","1","702.7000000178814","1","1","[""#48a782"",""#955db9""]","[""#7f5d5d"",""#5f6f81""]","16","false","[0.313,0.512,0.467,0.743]","3","0",""
"","","","","","two-step-trial","43","224897","0.0-21.0-0.0","","","","","","","","","[0,1]","0","0","988.2999999821186","0","[1440,900]","1","[0,1]","0","0","313.7999999821186","1","0","[""#48a782"",""#955db9""]","[""#7f5d5d"",""#5f6f81""]","17","false","[0.313,0.504,0.486,0.73]","3","0",""
"","","","","","two-step-trial","44","228263","0.0-22.0-0.0","","","","","","","","","[0,1]","0","0","1000.7000000178814","1","[1440,900]","1","[0,1]","0","0","349.59999999403954","1","0","[""#48a782"",""#955db9""]","[""#7f5d5d"",""#5f6f81""]","18","false","[0.334,0.526,0.501,0.707]","3","0",""
"","","","","","two-step-trial","45","230970","0.0-23.0-0.0","","","","","","","","","[0,1]","0","0","397.69999998807907","0","[1440,900]","1","[0,1]","0","0","296.39999997615814","1","0","[""#48a782"",""#955db9""]","[""#7f5d5d"",""#5f6f81""]","19","false","[0.312,0.543,0.473,0.695]","3","0",""
"","","","","","two-step-trial","46","233914","0.0-24.0-0.0","","","","","","","","","[2,3]","1","3","608.1999999880791","0","[1440,900]","1","[0,1]","1","1","315.5","1","1","[""#48a782"",""#955db9""]","[""#7f5d5d"",""#5f6f81""]","20","false","[0.304,0.536,0.482,0.668]","3","0",""
"","","","","","two-step-trial","47","236694","0.0-25.0-0.0","","","","","","","","","[2,3]","0","2","472.59999999403954","1","[1440,900]","1","[0,1]","1","1","291.5","1","1","[""#48a782"",""#955db9""]","[""#7f5d5d"",""#5f6f81""]","21","false","[0.309,0.543,0.477,0.682]","3","0",""
"","","","","","two-step-trial","48","239410","0.0-26.0-0.0","","","","","","","","","[2,3]","0","2","412.80000001192093","1","[1440,900]","1","[0,1]","1","1","285.7999999821186","1","1","[""#48a782"",""#955db9""]","[""#7f5d5d"",""#5f6f81""]","22","false","[0.301,0.563,0.45,0.702]","3","0",""
"","","","","","two-step-trial","49","242186","0.0-27.0-0.0","","","","","","","","","[0,1]","0","0","462.40000000596046","0","[1440,900]","1","[0,1]","1","1","296.40000000596046","0","0","[""#48a782"",""#955db9""]","[""#7f5d5d"",""#5f6f81""]","23","false","[0.322,0.569,0.42,0.742]","3","0",""
"","","","","","two-step-trial","50","245422","0.0-28.0-0.0","","","","","","","","","[2,3]","0","2","884.3000000119209","1","[1440,900]","1","[0,1]","1","1","342.80000001192093","1","1","[""#48a782"",""#955db9""]","[""#7f5d5d"",""#5f6f81""]","24","false","[0.298,0.566,0.43,0.74]","3","0",""
"","","","","","two-step-trial","51","248721","0.0-29.0-0.0","","","","","","","","","[0,1]","1","1","997.4000000059605","0","[1440,900]","1","[0,1]","0","0","290.5","1","0","[""#48a782"",""#955db9""]","[""#7f5d5d"",""#5f6f81""]","25","false","[0.293,0.552,0.394,0.669]","3","0",""
"","","","","","two-step-trial","52","252050","0.0-30.0-0.0","","","","","","","","","[0,1]","1","1","1000.1999999880791","1","[1440,900]","1","[0,1]","0","0","308.2999999821186","1","0","[""#48a782"",""#955db9""]","[""#7f5d5d"",""#5f6f81""]","26","false","[0.285,0.566,0.393,0.625]","3","0",""
"","","","","","two-step-trial","53","255106","0.0-31.0-0.0","","","","","","","","","[2,3]","1","3","903.7999999821186","1","[1440,900]","1","[0,1]","0","0","132","0","1","[""#48a782"",""#955db9""]","[""#7f5d5d"",""#5f6f81""]","27","false","[0.303,0.511,0.422,0.685]","3","0",""
"","","","","","two-step-trial","54","258053","0.0-32.0-0.0","","","","","","","","","[0,1]","1","1","453.2999999821186","1","[1440,900]","1","[0,1]","0","0","482.59999999403954","1","0","[""#48a782"",""#955db9""]","[""#7f5d5d"",""#5f6f81""]","28","false","[0.301,0.517,0.418,0.733]","3","0",""
"","","","","","two-step-trial","55","261466","0.0-33.0-0.0","","","","","","","","","[0,1]","1","1","1094","1","[1440,900]","1","[0,1]","0","0","296","1","0","[""#48a782"",""#955db9""]","[""#7f5d5d"",""#5f6f81""]","29","false","[0.345,0.508,0.373,0.733]","3","0",""
"","","","","","two-step-trial","56","264542","0.0-34.0-0.0","","","","","","","","","[0,1]","1","1","710.4000000059605","0","[1440,900]","1","[0,1]","0","0","352.2999999821186","1","0","[""#48a782"",""#955db9""]","[""#7f5d5d"",""#5f6f81""]","30","false","[0.33,0.509,0.425,0.737]","3","0",""
"","","","","","two-step-trial","57","266871","0.0-35.0-0.0","","","","","","","","","[0,1]","0","0","302.19999998807907","0","[1440,900]","1","[0,1]","0","0","17","1","0","[""#48a782"",""#955db9""]","[""#7f5d5d"",""#5f6f81""]","31","false","[0.33,0.475,0.428,0.706]","3","0",""
"","","","","","two-step-trial","58","269530","0.0-36.0-0.0","","","","","","","","","[0,1]","0","0","321","0","[1440,900]","1","[0,1]","0","0","318.80000001192093","1","0","[""#48a782"",""#955db9""]","[""#7f5d5d"",""#5f6f81""]","32","false","[0.332,0.492,0.442,0.701]","3","0",""
"","","","","","two-step-trial","59","272730","0.0-37.0-0.0","","","","","","","","","[2,3]","1","3","887.6000000238419","1","[1440,900]","1","[0,1]","0","0","292.2999999821186","0","1","[""#48a782"",""#955db9""]","[""#7f5d5d"",""#5f6f81""]","33","false","[0.306,0.461,0.388,0.724]","3","0",""
"","","","","","two-step-trial","60","275862","0.0-38.0-0.0","","","","","","","","","[0,1]","1","1","858.1999999880791","0","[1440,900]","1","[0,1]","0","0","265.40000000596046","1","0","[""#48a782"",""#955db9""]","[""#7f5d5d"",""#5f6f81""]","34","false","[0.335,0.445,0.418,0.721]","3","0",""
"","","","","","two-step-trial","61","278833","0.0-39.0-0.0","","","","","","","","","[0,1]","0","0","518.2000000178814","0","[1440,900]","1","[0,1]","0","0","431.90000000596046","1","0","[""#48a782"",""#955db9""]","[""#7f5d5d"",""#5f6f81""]","35","false","[0.342,0.479,0.439,0.713]","3","0",""
"","","","","","two-step-trial","62","282593","0.0-40.0-0.0","","","","","","","","","[2,3]","1","3","1458.9000000059605","1","[1440,900]","1","[0,1]","0","0","289.59999999403954","0","1","[""#48a782"",""#955db9""]","[""#7f5d5d"",""#5f6f81""]","36","false","[0.323,0.462,0.51,0.711]","3","0",""
"","","","","","two-step-trial","63","285433","0.0-41.0-0.0","","","","","","","","","[2,3]","1","3","483.5","0","[1440,900]","1","[0,1]","1","1","341.80000001192093","1","1","[""#48a782"",""#955db9""]","[""#7f5d5d"",""#5f6f81""]","37","false","[0.323,0.441,0.493,0.674]","3","0",""
"","","","","","two-step-trial","64","288634","0.0-42.0-0.0","","","","","","","","","[2,3]","0","2","902.1000000238419","0","[1440,900]","1","[0,1]","1","1","287","1","1","[""#48a782"",""#955db9""]","[""#7f5d5d"",""#5f6f81""]","38","false","[0.361,0.419,0.482,0.648]","3","0",""
"","","","","","two-step-trial","65","291341","0.0-43.0-0.0","","","","","","","","","[0,1]","1","1","365.30000001192093","0","[1440,900]","1","[0,1]","1","1","333.09999999403954","0","0","[""#48a782"",""#955db9""]","[""#7f5d5d"",""#5f6f81""]","39","false","[0.386,0.389,0.441,0.619]","3","0",""
"","","","","","two-step-trial","66","294045","0.0-44.0-0.0","","","","","","","","","[2,3]","1","3","419.09999999403954","1","[1440,900]","1","[0,1]","1","1","272.09999999403954","1","1","[""#48a782"",""#955db9""]","[""#7f5d5d"",""#5f6f81""]","40","false","[0.384,0.374,0.431,0.605]","3","0",""
"","","","","","two-step-trial","67","296633","0.0-45.0-0.0","","","","","","","","","[2,3]","1","3","441.7999999821186","1","[1440,900]","1","[0,1]","1","1","126.7000000178814","1","1","[""#48a782"",""#955db9""]","[""#7f5d5d"",""#5f6f81""]","41","false","[0.382,0.413,0.442,0.617]","3","0",""
"","","","","","two-step-trial","68","299639","0.0-46.0-0.0","","","","","","","","","[2,3]","1","3","692.7999999821186","0","[1440,900]","1","[0,1]","1","1","300.80000001192093","1","1","[""#48a782"",""#955db9""]","[""#7f5d5d"",""#5f6f81""]","42","false","[0.398,0.39,0.424,0.641]","3","0",""
"","","","","","two-step-trial","69","302938","0.0-47.0-0.0","","","","","","","","","[0,1]","0","0","1024.9000000059605","1","[1440,900]","1","[0,1]","1","1","255.19999998807907","0","0","[""#48a782"",""#955db9""]","[""#7f5d5d"",""#5f6f81""]","43","false","[0.37,0.404,0.412,0.63]","3","0",""
"","","","","","two-step-trial","70","305882","0.0-48.0-0.0","","","","","","","","","[2,3]","1","3","664.1999999880791","1","[1440,900]","1","[0,1]","1","1","264.19999998807907","1","1","[""#48a782"",""#955db9""]","[""#7f5d5d"",""#5f6f81""]","44","false","[0.417,0.444,0.403,0.613]","3","0",""
"","","","","","two-step-trial","71","308934","0.0-49.0-0.0","","","","","","","","","[0,1]","0","0","675.2999999821186","1","[1440,900]","1","[0,1]","0","0","356.40000000596046","1","0","[""#48a782"",""#955db9""]","[""#7f5d5d"",""#5f6f81""]","45","false","[0.439,0.427,0.37,0.612]","3","0",""
"","","","","","two-step-trial","72","311656","0.0-50.0-0.0","","","","","","","","","[0,1]","0","0","384.09999999403954","0","[1440,900]","1","[0,1]","0","0","320.69999998807907","1","0","[""#48a782"",""#955db9""]","[""#7f5d5d"",""#5f6f81""]","46","false","[0.459,0.416,0.369,0.621]","3","0",""
"","","","","","two-step-trial","73","314513","0.0-51.0-0.0","","","","","","","","","[2,3]","1","3","407","1","[1440,900]","1","[0,1]","0","0","431.90000000596046","0","1","[""#48a782"",""#955db9""]","[""#7f5d5d"",""#5f6f81""]","47","false","[0.475,0.425,0.384,0.6]","3","0",""
"","","","","","two-step-trial","74","317773","0.0-52.0-0.0","","","","","","","","","[0,1]","0","0","845.7999999821186","0","[1440,900]","1","[0,1]","0","0","400.59999999403954","1","0","[""#48a782"",""#955db9""]","[""#7f5d5d"",""#5f6f81""]","48","false","[0.438,0.4,0.412,0.606]","3","0",""
"","","","","","two-step-trial","75","320474","0.0-53.0-0.0","","","","","","","","","[2,3]","1","3","396.2999999821186","1","[1440,900]","1","[0,1]","1","1","290.19999998807907","1","1","[""#48a782"",""#955db9""]","[""#7f5d5d"",""#5f6f81""]","49","false","[0.47,0.408,0.421,0.598]","3","0",""
"","","","","","two-step-trial","76","323418","0.0-54.0-0.0","","","","","","","","","[0,1]","0","0","671.9000000059605","0","[1440,900]","1","[0,1]","0","0","253.19999998807907","1","0","[""#48a782"",""#955db9""]","[""#7f5d5d"",""#5f6f81""]","50","false","[0.41,0.42,0.42,0.6]","3","0",""
"","","","","","two-step-trial","77","326157","0.0-55.0-0.0","","","","","","","","","[2,3]","1","3","501.7000000178814","1","[1440,900]","1","[0,1]","0","0","226.19999998807907","0","1","[""#48a782"",""#955db9""]","[""#7f5d5d"",""#5f6f81""]","51","false","[0.412,0.415,0.461,0.564]","3","0",""
"","","","","","two-step-trial","78","329696","0.0-56.0-0.0","","","","","","","","","[0,1]","1","1","1224.9000000059605","0","[1440,900]","1","[0,1]","0","0","293.69999998807907","1","0","[""#48a782"",""#955db9""]","[""#7f5d5d"",""#5f6f81""]","52","false","[0.424,0.4,0.482,0.568]","3","0",""
"","","","","","two-step-trial","79","332479","0.0-57.0-0.0","","","","","","","","","[2,3]","1","3","491","0","[1440,900]","1","[0,1]","0","0","281.7000000178814","0","1","[""#48a782"",""#955db9""]","[""#7f5d5d"",""#5f6f81""]","53","false","[0.449,0.35,0.448,0.582]","3","0",""
"","","","","","two-step-trial","80","335394","0.0-58.0-0.0","","","","","","","","","[2,3]","1","3","391.7000000178814","0","[1440,900]","1","[0,1]","1","1","506.09999999403954","1","1","[""#48a782"",""#955db9""]","[""#7f5d5d"",""#5f6f81""]","54","false","[0.409,0.381,0.436,0.573]","3","0",""
"","","","","","two-step-trial","81","338079","0.0-59.0-0.0","","","","","","","","","[2,3]","0","2","421.69999998807907","1","[1440,900]","1","[0,1]","1","1","246.40000000596046","1","1","[""#48a782"",""#955db9""]","[""#7f5d5d"",""#5f6f81""]","55","false","[0.408,0.407,0.428,0.609]","3","0",""
"","","","","","two-step-trial","82","341390","0.0-60.0-0.0","","","","","","","","","[0,1]","0","0","888.0999999940395","1","[1440,900]","1","[0,1]","0","0","410.80000001192093","1","0","[""#48a782"",""#955db9""]","[""#7f5d5d"",""#5f6f81""]","56","false","[0.417,0.354,0.381,0.598]","3","0",""
"","","","","","two-step-trial","83","344157","0.0-61.0-0.0","","","","","","","","","[0,1]","0","0","448.89999997615814","1","[1440,900]","1","[0,1]","0","0","308","1","0","[""#48a782"",""#955db9""]","[""#7f5d5d"",""#5f6f81""]","57","false","[0.462,0.35,0.396,0.55]","3","0",""
"","","","","","two-step-trial","84","347141","0.0-62.0-0.0","","","","","","","","","[2,3]","0","2","684.5","0","[1440,900]","1","[0,1]","0","0","282.5","0","1","[""#48a782"",""#955db9""]","[""#7f5d5d"",""#5f6f81""]","58","false","[0.474,0.332,0.382,0.55]","3","0",""
"","","","","","two-step-trial","85","349858","0.0-63.0-0.0","","","","","","","","","[0,1]","0","0","365.5","0","[1440,900]","1","[0,1]","0","0","327.59999999403954","1","0","[""#48a782"",""#955db9""]","[""#7f5d5d"",""#5f6f81""]","59","false","[0.462,0.326,0.376,0.559]","3","0",""
"","","","","","two-step-trial","86","352422","0.0-64.0-0.0","","","","","","","","","[0,1]","0","0","261.2999999821186","0","[1440,900]","1","[0,1]","0","0","291.09999999403954","1","0","[""#48a782"",""#955db9""]","[""#7f5d5d"",""#5f6f81""]","60","false","[0.432,0.348,0.372,0.56]","3","0",""
"","","","","","two-step-trial","87","354889","0.0-65.0-0.0","","","","","","","","","[0,1]","0","0","316.2000000178814","0","[1440,900]","1","[0,1]","0","0","135.69999998807907","1","0","[""#48a782"",""#955db9""]","[""#7f5d5d"",""#5f6f81""]","61","false","[0.43,0.371,0.389,0.587]","3","0",""
"","","","","","two-step-trial","88","357800","0.0-66.0-0.0","","","","","","","","","[0,1]","1","1","621","0","[1440,900]","1","[0,1]","1","1","267.40000000596046","0","0","[""#48a782"",""#955db9""]","[""#7f5d5d"",""#5f6f81""]","62","false","[0.426,0.371,0.382,0.585]","3","0",""
"","","","","","two-step-trial","89","360554","0.0-67.0-0.0","","","","","","","","","[0,1]","1","1","460.5","0","[1440,900]","1","[0,1]","1","1","280.19999998807907","0","0","[""#48a782"",""#955db9""]","[""#7f5d5d"",""#5f6f81""]","63","false","[0.431,0.358,0.396,0.59]","3","0",""
"","","","","","two-step-trial","90","363186","0.0-68.0-0.0","","","","","","","","","[0,1]","0","0","290.59999999403954","0","[1440,900]","1","[0,1]","1","1","325.90000000596046","0","0","[""#48a782"",""#955db9""]","[""#7f5d5d"",""#5f6f81""]","64","false","[0.392,0.299,0.415,0.581]","3","0",""
"","","","","","two-step-trial","91","365786","0.0-69.0-0.0","","","","","","","","","[2,3]","1","3","297.80000001192093","1","[1440,900]","1","[0,1]","1","1","287.39999997615814","1","1","[""#48a782"",""#955db9""]","[""#7f5d5d"",""#5f6f81""]","65","false","[0.371,0.329,0.405,0.589]","3","0",""
"","","","","","two-step-trial","92","368898","0.0-70.0-0.0","","","","","","","","","[2,3]","1","3","702","1","[1440,900]","1","[0,1]","1","1","389.69999998807907","1","1","[""#48a782"",""#955db9""]","[""#7f5d5d"",""#5f6f81""]","66","false","[0.354,0.287,0.413,0.591]","3","0",""
"","","","","","two-step-trial","93","371482","0.0-71.0-0.0","","","","","","","","","[2,3]","1","3","318.90000000596046","1","[1440,900]","1","[0,1]","1","1","244.40000000596046","1","1","[""#48a782"",""#955db9""]","[""#7f5d5d"",""#5f6f81""]","67","false","[0.398,0.254,0.426,0.603]","3","0",""
"","","","","","two-step-trial","94","374002","0.0-72.0-0.0","","","","","","","","","[2,3]","1","3","328","0","[1440,900]","1","[0,1]","1","1","176","1","1","[""#48a782"",""#955db9""]","[""#7f5d5d"",""#5f6f81""]","68","false","[0.425,0.254,0.441,0.582]","3","0",""
"","","","","","two-step-trial","95","376677","0.0-73.0-0.0","","","","","","","","","[2,3]","0","2","447.30000001192093","1","[1440,900]","1","[0,1]","1","1","222.09999999403954","1","1","[""#48a782"",""#955db9""]","[""#7f5d5d"",""#5f6f81""]","69","false","[0.474,0.287,0.392,0.531]","3","0",""
"","","","","","two-step-trial","96","379366","0.0-74.0-0.0","","","","","","","","","[2,3]","0","2","392.39999997615814","1","[1440,900]","1","[0,1]","1","1","278.40000000596046","1","1","[""#48a782"",""#955db9""]","[""#7f5d5d"",""#5f6f81""]","70","false","[0.51,0.279,0.378,0.487]","3","0",""
"","","","","","two-step-trial","97","383426","0.0-75.0-0.0","","","","","","","","","[0,1]","1","1","1843.699999988079","1","[1440,900]","1","[0,1]","1","1","201.2999999821186","0","0","[""#48a782"",""#955db9""]","[""#7f5d5d"",""#5f6f81""]","71","false","[0.506,0.269,0.381,0.477]","3","0",""
"","","","","","two-step-trial","98","388886","0.0-76.0-0.0","","","","","","","","","[2,3]","1","3","3168.199999988079","0","[1440,900]","1","[0,1]","1","1","280.19999998807907","1","1","[""#48a782"",""#955db9""]","[""#7f5d5d"",""#5f6f81""]","72","false","[0.541,0.263,0.39,0.466]","3","0",""
"","","","","","two-step-trial","99","391847","0.0-77.0-0.0","","","","","","","","","[2,3]","1","3","644","1","[1440,900]","1","[0,1]","1","1","299.69999998807907","1","1","[""#48a782"",""#955db9""]","[""#7f5d5d"",""#5f6f81""]","73","false","[0.49,0.271,0.373,0.466]","3","0",""
"","","","","","two-step-trial","100","394519","0.0-78.0-0.0","","","","","","","","","[2,3]","1","3","354.69999998807907","0","[1440,900]","1","[0,1]","1","1","302.59999999403954","1","1","[""#48a782"",""#955db9""]","[""#7f5d5d"",""#5f6f81""]","74","false","[0.512,0.277,0.41,0.457]","3","0",""
"","","","","","two-step-trial","101","397138","0.0-79.0-0.0","","","","","","","","","[0,1]","0","0","277.80000001192093","1","[1440,900]","1","[0,1]","1","1","326.90000000596046","0","0","[""#48a782"",""#955db9""]","[""#7f5d5d"",""#5f6f81""]","75","false","[0.537,0.271,0.42,0.478]","3","0",""
"","","","","","two-step-instructions","102","402527","0.0-80.0","5386.699999988079","","","[{""page_index"":0,""viewing_time"":292.39999997615814},{""page_index"":1,""viewing_time"":1529.6000000238419},{""page_index"":0,""viewing_time"":1091},{""page_index"":1,""viewing_time"":2473.399999976158}]","","","","","","","","","","","","","","","","","","","","","","","","",""
"","","","","","two-step-trial","103","406193","0.0-81.0-0.0","","","","","","","","","[2,3]","1","3","699.0999999940395","0","[1440,900]","1","[0,1]","1","1","953.4000000059605","1","1","[""#48a782"",""#955db9""]","[""#7f5d5d"",""#5f6f81""]","76","false","[0.539,0.257,0.455,0.448]","3","0",""
"","","","","","two-step-trial","104","409045","0.0-82.0-0.0","","","","","","","","","[2,3]","0","2","475.59999999403954","1","[1440,900]","1","[0,1]","1","1","369.10000002384186","1","1","[""#48a782"",""#955db9""]","[""#7f5d5d"",""#5f6f81""]","77","false","[0.56,0.261,0.459,0.423]","3","0",""
"","","","","","two-step-trial","105","411969","0.0-83.0-0.0","","","","","","","","","[2,3]","0","2","432.80000001192093","0","[1440,900]","1","[0,1]","1","1","473.39999997615814","1","1","[""#48a782"",""#955db9""]","[""#7f5d5d"",""#5f6f81""]","78","false","[0.543,0.26,0.436,0.441]","3","0",""
"","","","","","two-step-trial","106","414538","0.0-84.0-0.0","","","","","","","","","[0,1]","0","0","301.59999999403954","0","[1440,900]","1","[0,1]","1","1","249.19999998807907","0","0","[""#48a782"",""#955db9""]","[""#7f5d5d"",""#5f6f81""]","79","false","[0.536,0.268,0.465,0.475]","3","0",""
"","","","","","two-step-trial","107","417270","0.0-85.0-0.0","","","","","","","","","[0,1]","1","1","577.9000000059605","0","[1440,900]","1","[0,1]","1","1","141.10000002384186","0","0","[""#48a782"",""#955db9""]","[""#7f5d5d"",""#5f6f81""]","80","false","[0.534,0.324,0.464,0.482]","3","0",""
"","","","","","two-step-trial","108","420009","0.0-86.0-0.0","","","","","","","","","[0,1]","1","1","536.3000000119209","0","[1440,900]","1","[0,1]","0","0","186.30000001192093","1","0","[""#48a782"",""#955db9""]","[""#7f5d5d"",""#5f6f81""]","81","false","[0.553,0.309,0.445,0.465]","3","0",""
"","","","","","two-step-trial","109","422574","0.0-87.0-0.0","","","","","","","","","[0,1]","0","0","262.39999997615814","0","[1440,900]","1","[0,1]","0","0","284.7999999821186","1","0","[""#48a782"",""#955db9""]","[""#7f5d5d"",""#5f6f81""]","82","false","[0.563,0.291,0.404,0.437]","3","0",""
"","","","","","two-step-trial","110","425066","0.0-88.0-0.0","","","","","","","","","[2,3]","0","2","285.7000000178814","0","[1440,900]","1","[0,1]","0","0","191.2999999821186","0","1","[""#48a782"",""#955db9""]","[""#7f5d5d"",""#5f6f81""]","83","false","[0.563,0.298,0.442,0.474]","3","0",""
"","","","","","two-step-trial","111","427642","0.0-89.0-0.0","","","","","","","","","[0,1]","0","0","288.19999998807907","0","[1440,900]","1","[0,1]","0","0","265.7999999821186","1","0","[""#48a782"",""#955db9""]","[""#7f5d5d"",""#5f6f81""]","84","false","[0.591,0.316,0.454,0.449]","3","0",""
"","","","","","two-step-trial","112","430174","0.0-90.0-0.0","","","","","","","","","[0,1]","1","1","309.5","1","[1440,900]","1","[0,1]","0","0","216.59999999403954","1","0","[""#48a782"",""#955db9""]","[""#7f5d5d"",""#5f6f81""]","85","false","[0.57,0.324,0.436,0.421]","3","0",""
"","","","","","two-step-trial","113","433870","0.0-91.0-0.0","","","","","","","","","[2,3]","1","3","1361.800000011921","1","[1440,900]","1","[0,1]","1","1","324.2999999821186","1","1","[""#48a782"",""#955db9""]","[""#7f5d5d"",""#5f6f81""]","86","false","[0.531,0.336,0.408,0.378]","3","0",""
"","","","","","two-step-trial","114","436590","0.0-92.0-0.0","","","","","","","","","[2,3]","1","3","340.89999997615814","0","[1440,900]","1","[0,1]","1","1","360.5","1","1","[""#48a782"",""#955db9""]","[""#7f5d5d"",""#5f6f81""]","87","false","[0.529,0.309,0.432,0.403]","3","0",""
"","","","","","two-step-trial","115","440328","0.0-93.0-0.0","","","","","","","","","[2,3]","0","2","1513.5","0","[1440,900]","1","[0,1]","1","1","206.69999998807907","1","1","[""#48a782"",""#955db9""]","[""#7f5d5d"",""#5f6f81""]","88","false","[0.532,0.296,0.431,0.406]","3","0",""
"","","","","","two-step-trial","116","443104","0.0-94.0-0.0","","","","","","","","","[2,3]","1","3","462.59999999403954","1","[1440,900]","1","[0,1]","1","1","295.5","1","1","[""#48a782"",""#955db9""]","[""#7f5d5d"",""#5f6f81""]","89","false","[0.553,0.328,0.456,0.411]","3","0",""
"","","","","","two-step-trial","117","445766","0.0-95.0-0.0","","","","","","","","","[2,3]","1","3","420.2999999821186","1","[1440,900]","1","[0,1]","1","1","220.7999999821186","1","1","[""#48a782"",""#955db9""]","[""#7f5d5d"",""#5f6f81""]","90","false","[0.542,0.3,0.493,0.409]","3","0",""
"","","","","","two-step-trial","118","448609","0.0-96.0-0.0","","","","","","","","","[2,3]","1","3","545.1999999880791","0","[1440,900]","1","[0,1]","1","1","283.09999999403954","1","1","[""#48a782"",""#955db9""]","[""#7f5d5d"",""#5f6f81""]","91","false","[0.54,0.298,0.512,0.437]","3","0",""
"","","","","","two-step-trial","119","450933","0.0-97.0-0.0","","","","","","","","","[0,1]","1","1","253.2000000178814","1","[1440,900]","1","[0,1]","1","1","49.5","0","0","[""#48a782"",""#955db9""]","[""#7f5d5d"",""#5f6f81""]","92","false","[0.564,0.281,0.499,0.45]","3","0",""
"","","","","","two-step-trial","120","453450","0.0-98.0-0.0","","","","","","","","","[0,1]","1","1","314.59999999403954","0","[1440,900]","1","[0,1]","1","1","189.5","0","0","[""#48a782"",""#955db9""]","[""#7f5d5d"",""#5f6f81""]","93","false","[0.542,0.268,0.44,0.42]","3","0",""
"","","","","","two-step-trial","121","455973","0.0-99.0-0.0","","","","","","","","","[2,3]","1","3","386.69999998807907","0","[1440,900]","1","[0,1]","1","1","125.59999999403954","1","1","[""#48a782"",""#955db9""]","[""#7f5d5d"",""#5f6f81""]","94","false","[0.539,0.26,0.421,0.438]","3","0",""
"","","","","","two-step-trial","122","458670","0.0-100.0-0.0","","","","","","","","","[0,1]","1","1","619.5","1","[1440,900]","1","[0,1]","1","1","64.7000000178814","0","0","[""#48a782"",""#955db9""]","[""#7f5d5d"",""#5f6f81""]","95","false","[0.583,0.272,0.407,0.449]","3","0",""
"","","","","","two-step-trial","123","462677","0.0-101.0-0.0","","","","","","","","","[2,3]","1","3","1913.300000011921","0","[1440,900]","1","[0,1]","1","1","79.19999998807907","1","1","[""#48a782"",""#955db9""]","[""#7f5d5d"",""#5f6f81""]","96","false","[0.596,0.257,0.37,0.508]","3","0",""
"","","","","","two-step-trial","124","465248","0.0-102.0-0.0","","","","","","","","","[0,1]","1","1","254.90000000596046","1","[1440,900]","1","[0,1]","1","1","299.09999999403954","0","0","[""#48a782"",""#955db9""]","[""#7f5d5d"",""#5f6f81""]","97","false","[0.6,0.317,0.384,0.526]","3","0",""
"","","","","","two-step-trial","125","468070","0.0-103.0-0.0","","","","","","","","","[0,1]","1","1","582.6999999880791","1","[1440,900]","1","[0,1]","1","1","223.2999999821186","0","0","[""#48a782"",""#955db9""]","[""#7f5d5d"",""#5f6f81""]","98","false","[0.573,0.304,0.387,0.504]","3","0",""
"","","","","","two-step-trial","126","471441","0.0-104.0-0.0","","","","","","","","","[0,1]","0","0","780.8999999761581","1","[1440,900]","1","[0,1]","1","1","578.5","0","0","[""#48a782"",""#955db9""]","[""#7f5d5d"",""#5f6f81""]","99","false","[0.567,0.288,0.405,0.531]","3","0",""
"","","","","","two-step-trial","127","474376","0.0-105.0-0.0","","","","","","","","","[2,3]","0","2","564.3999999761581","1","[1440,900]","1","[0,1]","1","1","354.90000000596046","1","1","[""#48a782"",""#955db9""]","[""#7f5d5d"",""#5f6f81""]","100","false","[0.535,0.255,0.402,0.526]","3","0",""
"","","","","","two-step-trial","128","477037","0.0-106.0-0.0","","","","","","","","","[2,3]","0","2","418.09999999403954","0","[1440,900]","1","[0,1]","1","1","226.60000002384186","1","1","[""#48a782"",""#955db9""]","[""#7f5d5d"",""#5f6f81""]","101","false","[0.52,0.27,0.348,0.507]","3","0",""
"","","","","","two-step-trial","129","479717","0.0-107.0-0.0","","","","","","","","","[2,3]","1","3","374.19999998807907","0","[1440,900]","1","[0,1]","1","1","287.39999997615814","1","1","[""#48a782"",""#955db9""]","[""#7f5d5d"",""#5f6f81""]","102","false","[0.518,0.277,0.374,0.503]","3","0",""
"","","","","","two-step-trial","130","482201","0.0-108.0-0.0","","","","","","","","","[2,3]","1","3","93.09999999403954","0","[1440,900]","1","[0,1]","1","1","376.7000000178814","1","1","[""#48a782"",""#955db9""]","[""#7f5d5d"",""#5f6f81""]","103","false","[0.492,0.318,0.345,0.483]","3","0",""
"","","","","","two-step-trial","131","484685","0.0-109.0-0.0","","","","","","","","","[0,1]","1","1","365.5","0","[1440,900]","1","[0,1]","1","1","104.90000000596046","0","0","[""#48a782"",""#955db9""]","[""#7f5d5d"",""#5f6f81""]","104","false","[0.494,0.305,0.344,0.485]","3","0",""
"","","","","","two-step-trial","132","487390","0.0-110.0-0.0","","","","","","","","","[2,3]","0","2","261.69999998807907","1","[1440,900]","1","[0,1]","1","1","429.89999997615814","1","1","[""#48a782"",""#955db9""]","[""#7f5d5d"",""#5f6f81""]","105","false","[0.496,0.279,0.36,0.503]","3","0",""
"","","","","","two-step-trial","133","490509","0.0-111.0-0.0","","","","","","","","","[0,1]","1","1","747.7999999821186","0","[1440,900]","1","[0,1]","0","0","358.40000000596046","1","0","[""#48a782"",""#955db9""]","[""#7f5d5d"",""#5f6f81""]","106","false","[0.522,0.291,0.358,0.537]","3","0",""
"","","","","","two-step-trial","134","493214","0.0-112.0-0.0","","","","","","","","","[0,1]","0","0","293.10000002384186","1","[1440,900]","1","[0,1]","0","0","396.30000001192093","1","0","[""#48a782"",""#955db9""]","[""#7f5d5d"",""#5f6f81""]","107","false","[0.481,0.324,0.357,0.499]","3","0",""
"","","","","","two-step-trial","135","496065","0.0-113.0-0.0","","","","","","","","","[0,1]","0","0","467.09999999403954","1","[1440,900]","1","[0,1]","0","0","368.40000000596046","1","0","[""#48a782"",""#955db9""]","[""#7f5d5d"",""#5f6f81""]","108","false","[0.504,0.334,0.327,0.481]","3","0",""
"","","","","","two-step-trial","136","498863","0.0-114.0-0.0","","","","","","","","","[0,1]","0","0","436.09999999403954","1","[1440,900]","1","[0,1]","0","0","347.59999999403954","1","0","[""#48a782"",""#955db9""]","[""#7f5d5d"",""#5f6f81""]","109","false","[0.526,0.339,0.308,0.485]","3","0",""
"","","","","","two-step-trial","137","501445","0.0-115.0-0.0","","","","","","","","","[0,1]","0","0","284.2000000178814","1","[1440,900]","1","[0,1]","0","0","284.2999999821186","1","0","[""#48a782"",""#955db9""]","[""#7f5d5d"",""#5f6f81""]","110","false","[0.551,0.358,0.295,0.444]","3","0",""
"","","","","","two-step-trial","138","504081","0.0-116.0-0.0","","","","","","","","","[0,1]","0","0","324.19999998807907","1","[1440,900]","1","[0,1]","0","0","299.19999998807907","1","0","[""#48a782"",""#955db9""]","[""#7f5d5d"",""#5f6f81""]","111","false","[0.517,0.359,0.323,0.417]","3","0",""
"","","","","","two-step-trial","139","506705","0.0-117.0-0.0","","","","","","","","","[0,1]","0","0","308.2999999821186","0","[1440,900]","1","[0,1]","0","0","299.59999999403954","1","0","[""#48a782"",""#955db9""]","[""#7f5d5d"",""#5f6f81""]","112","false","[0.506,0.34,0.322,0.412]","3","0",""
"","","","","","two-step-trial","140","509241","0.0-118.0-0.0","","","","","","","","","[0,1]","1","1","269.40000000596046","1","[1440,900]","1","[0,1]","0","0","248.59999999403954","1","0","[""#48a782"",""#955db9""]","[""#7f5d5d"",""#5f6f81""]","113","false","[0.467,0.28,0.348,0.413]","3","0",""
"","","","","","two-step-trial","141","512004","0.0-119.0-0.0","","","","","","","","","[0,1]","1","1","434.69999998807907","1","[1440,900]","1","[0,1]","0","0","318.30000001192093","1","0","[""#48a782"",""#955db9""]","[""#7f5d5d"",""#5f6f81""]","114","false","[0.494,0.276,0.373,0.43]","3","0",""
"","","","","","two-step-trial","142","514614","0.0-120.0-0.0","","","","","","","","","[0,1]","1","1","314.90000000596046","1","[1440,900]","1","[0,1]","0","0","282.40000000596046","1","0","[""#48a782"",""#955db9""]","[""#7f5d5d"",""#5f6f81""]","115","false","[0.493,0.258,0.428,0.412]","3","0",""
"","","","","","two-step-trial","143","517199","0.0-121.0-0.0","","","","","","","","","[2,3]","1","3","144.10000002384186","0","[1440,900]","1","[0,1]","0","0","427.30000001192093","0","1","[""#48a782"",""#955db9""]","[""#7f5d5d"",""#5f6f81""]","116","false","[0.492,0.266,0.447,0.466]","3","0",""
"","","","","","two-step-trial","144","519784","0.0-122.0-0.0","","","","","","","","","[2,3]","0","2","274.09999999403954","0","[1440,900]","1","[0,1]","0","0","292.80000001192093","0","1","[""#48a782"",""#955db9""]","[""#7f5d5d"",""#5f6f81""]","117","false","[0.512,0.269,0.457,0.471]","3","0",""
"","","","","","two-step-trial","145","522121","0.0-123.0-0.0","","","","","","","","","[2,3]","1","3","282.10000002384186","0","[1440,900]","1","[0,1]","1","1","40.80000001192093","1","1","[""#48a782"",""#955db9""]","[""#7f5d5d"",""#5f6f81""]","118","false","[0.551,0.283,0.506,0.484]","3","0",""
"","","","","","two-step-trial","146","524753","0.0-124.0-0.0","","","","","","","","","[2,3]","0","2","520.8000000119209","0","[1440,900]","1","[0,1]","1","1","89.40000000596046","1","1","[""#48a782"",""#955db9""]","[""#7f5d5d"",""#5f6f81""]","119","false","[0.537,0.273,0.462,0.473]","3","0",""
"","","","","","two-step-trial","147","527414","0.0-125.0-0.0","","","","","","","","","[2,3]","1","3","230.39999997615814","0","[1440,900]","1","[0,1]","1","1","413.5","1","1","[""#48a782"",""#955db9""]","[""#7f5d5d"",""#5f6f81""]","120","false","[0.49,0.26,0.46,0.477]","3","0",""
"","","","","","two-step-trial","148","530133","0.0-126.0-0.0","","","","","","","","","[0,1]","1","1","412.19999998807907","0","[1440,900]","1","[0,1]","1","1","292.19999998807907","0","0","[""#48a782"",""#955db9""]","[""#7f5d5d"",""#5f6f81""]","121","false","[0.547,0.275,0.457,0.431]","3","0",""
"","","","","","two-step-trial","149","533121","0.0-127.0-0.0","","","","","","","","","[2,3]","1","3","491.5","0","[1440,900]","1","[0,1]","1","1","481.39999997615814","1","1","[""#48a782"",""#955db9""]","[""#7f5d5d"",""#5f6f81""]","122","false","[0.578,0.269,0.386,0.411]","3","0",""
"","","","","","two-step-trial","150","535799","0.0-128.0-0.0","","","","","","","","","[2,3]","0","2","401.69999998807907","0","[1440,900]","1","[0,1]","1","1","261","1","1","[""#48a782"",""#955db9""]","[""#7f5d5d"",""#5f6f81""]","123","false","[0.639,0.269,0.384,0.429]","3","0",""
"","","","","","two-step-trial","151","538537","0.0-129.0-0.0","","","","","","","","","[0,1]","1","1","388.7000000178814","0","[1440,900]","1","[0,1]","1","1","331.2999999821186","0","0","[""#48a782"",""#955db9""]","[""#7f5d5d"",""#5f6f81""]","124","false","[0.636,0.254,0.416,0.449]","3","0",""
"","","","","","two-step-trial","152","541029","0.0-130.0-0.0","","","","","","","","","[2,3]","1","3","417.59999999403954","1","[1440,900]","1","[0,1]","1","1","59.5","1","1","[""#48a782"",""#955db9""]","[""#7f5d5d"",""#5f6f81""]","125","false","[0.665,0.257,0.44,0.433]","3","0",""
"","","","","","two-step-trial","153","543791","0.0-131.0-0.0","","","","","","","","","[2,3]","1","3","430.80000001192093","0","[1440,900]","1","[0,1]","1","1","317.2999999821186","1","1","[""#48a782"",""#955db9""]","[""#7f5d5d"",""#5f6f81""]","126","false","[0.694,0.25,0.453,0.414]","3","0",""
"","","","","","two-step-trial","154","546453","0.0-132.0-0.0","","","","","","","","","[2,3]","1","3","439.69999998807907","1","[1440,900]","1","[0,1]","1","1","211.09999999403954","1","1","[""#48a782"",""#955db9""]","[""#7f5d5d"",""#5f6f81""]","127","false","[0.666,0.266,0.449,0.399]","3","0",""
"","","","","","two-step-trial","155","549185","0.0-133.0-0.0","","","","","","","","","[0,1]","1","1","388.2999999821186","1","[1440,900]","1","[0,1]","1","1","328","0","0","[""#48a782"",""#955db9""]","[""#7f5d5d"",""#5f6f81""]","128","false","[0.66,0.272,0.461,0.39]","3","0",""
"","","","","","two-step-trial","156","551928","0.0-134.0-0.0","","","","","","","","","[0,1]","1","1","363.5","1","[1440,900]","1","[0,1]","1","1","361.59999999403954","0","0","[""#48a782"",""#955db9""]","[""#7f5d5d"",""#5f6f81""]","129","false","[0.677,0.288,0.452,0.388]","3","0",""
"","","","","","two-step-trial","157","554505","0.0-135.0-0.0","","","","","","","","","[0,1]","1","1","377.30000001192093","0","[1440,900]","1","[0,1]","1","1","186.2000000178814","0","0","[""#48a782"",""#955db9""]","[""#7f5d5d"",""#5f6f81""]","130","false","[0.654,0.252,0.415,0.434]","3","0",""
"","","","","","two-step-trial","158","557673","0.0-136.0-0.0","","","","","","","","","[0,1]","0","0","1092.9000000059605","1","[1440,900]","1","[0,1]","1","1","60.89999997615814","0","0","[""#48a782"",""#955db9""]","[""#7f5d5d"",""#5f6f81""]","131","false","[0.662,0.271,0.398,0.411]","3","0",""
"","","","","","two-step-trial","159","560409","0.0-137.0-0.0","","","","","","","","","[0,1]","1","1","431.40000000596046","1","[1440,900]","1","[0,1]","1","1","285.59999999403954","0","0","[""#48a782"",""#955db9""]","[""#7f5d5d"",""#5f6f81""]","132","false","[0.661,0.29,0.402,0.435]","3","0",""
"","","","","","two-step-trial","160","563125","0.0-138.0-0.0","","","","","","","","","[0,1]","0","0","445.40000000596046","1","[1440,900]","1","[0,1]","1","1","259.09999999403954","0","0","[""#48a782"",""#955db9""]","[""#7f5d5d"",""#5f6f81""]","133","false","[0.665,0.307,0.385,0.395]","3","0",""
"","","","","","two-step-trial","161","565869","0.0-139.0-0.0","","","","","","","","","[2,3]","0","2","459.40000000596046","0","[1440,900]","1","[0,1]","1","1","271","1","1","[""#48a782"",""#955db9""]","[""#7f5d5d"",""#5f6f81""]","134","false","[0.696,0.308,0.332,0.425]","3","0",""
"","","","","","two-step-trial","162","568561","0.0-140.0-0.0","","","","","","","","","[2,3]","1","3","397.5","0","[1440,900]","1","[0,1]","1","1","282.09999999403954","1","1","[""#48a782"",""#955db9""]","[""#7f5d5d"",""#5f6f81""]","135","false","[0.68,0.339,0.346,0.425]","3","0",""
"","","","","","two-step-trial","163","571143","0.0-141.0-0.0","","","","","","","","","[2,3]","0","2","287.59999999403954","1","[1440,900]","1","[0,1]","1","1","279","1","1","[""#48a782"",""#955db9""]","[""#7f5d5d"",""#5f6f81""]","136","false","[0.674,0.33,0.342,0.403]","3","0",""
"","","","","","two-step-trial","164","573865","0.0-142.0-0.0","","","","","","","","","[2,3]","0","2","480.7999999821186","1","[1440,900]","1","[0,1]","1","1","224.90000000596046","1","1","[""#48a782"",""#955db9""]","[""#7f5d5d"",""#5f6f81""]","137","false","[0.699,0.293,0.329,0.403]","3","0",""
"","","","","","two-step-trial","165","576445","0.0-143.0-0.0","","","","","","","","","[2,3]","0","2","350.90000000596046","0","[1440,900]","1","[0,1]","1","1","211.59999999403954","1","1","[""#48a782"",""#955db9""]","[""#7f5d5d"",""#5f6f81""]","138","false","[0.734,0.332,0.387,0.413]","3","0",""
"","","","","","two-step-trial","166","578801","0.0-144.0-0.0","","","","","","","","","[2,3]","1","3","317.59999999403954","1","[1440,900]","1","[0,1]","1","1","21.700000017881393","1","1","[""#48a782"",""#955db9""]","[""#7f5d5d"",""#5f6f81""]","139","false","[0.692,0.301,0.41,0.413]","3","0",""
"","","","","","two-step-trial","167","581408","0.0-145.0-0.0","","","","","","","","","[2,3]","1","3","365.7999999821186","0","[1440,900]","1","[0,1]","1","1","230","1","1","[""#48a782"",""#955db9""]","[""#7f5d5d"",""#5f6f81""]","140","false","[0.722,0.286,0.408,0.406]","3","0",""
"","","","","","two-step-trial","168","583797","0.0-146.0-0.0","","","","","","","","","[2,3]","0","2","300.89999997615814","0","[1440,900]","1","[0,1]","1","1","71.2999999821186","1","1","[""#48a782"",""#955db9""]","[""#7f5d5d"",""#5f6f81""]","141","false","[0.748,0.253,0.428,0.403]","3","0",""
"","","","","","two-step-trial","169","586669","0.0-147.0-0.0","","","","","","","","","[2,3]","1","3","388.40000000596046","0","[1440,900]","1","[0,1]","1","1","469.09999999403954","1","1","[""#48a782"",""#955db9""]","[""#7f5d5d"",""#5f6f81""]","142","false","[0.73,0.307,0.452,0.407]","3","0",""
"","","","","","two-step-trial","170","589389","0.0-148.0-0.0","","","","","","","","","[2,3]","0","2","303.69999998807907","1","[1440,900]","1","[0,1]","1","1","399.09999999403954","1","1","[""#48a782"",""#955db9""]","[""#7f5d5d"",""#5f6f81""]","143","false","[0.722,0.322,0.426,0.388]","3","0",""
"","","","","","two-step-trial","171","592270","0.0-149.0-0.0","","","","","","","","","[2,3]","0","2","357.89999997615814","0","[1440,900]","1","[0,1]","1","1","510","1","1","[""#48a782"",""#955db9""]","[""#7f5d5d"",""#5f6f81""]","144","false","[0.741,0.323,0.436,0.398]","3","0",""
"","","","","","two-step-trial","172","595614","0.0-150.0-0.0","","","","","","","","","[2,3]","1","3","559.0999999940395","1","[1440,900]","1","[0,1]","1","1","771.5","1","1","[""#48a782"",""#955db9""]","[""#7f5d5d"",""#5f6f81""]","145","false","[0.741,0.294,0.454,0.41]","3","0",""
"","","","","","two-step-trial","173","598225","0.0-151.0-0.0","","","","","","","","","[2,3]","1","3","319.39999997615814","0","[1440,900]","1","[0,1]","1","1","272","1","1","[""#48a782"",""#955db9""]","[""#7f5d5d"",""#5f6f81""]","146","false","[0.741,0.316,0.493,0.383]","3","0",""
"","","","","","two-step-trial","174","601537","0.0-152.0-0.0","","","","","","","","","[0,1]","0","0","1017.3000000119209","1","[1440,900]","1","[0,1]","1","1","279.7999999821186","0","0","[""#48a782"",""#955db9""]","[""#7f5d5d"",""#5f6f81""]","147","false","[0.733,0.288,0.53,0.358]","3","0",""
"","","","","","two-step-trial","175","604021","0.0-153.0-0.0","","","","","","","","","[2,3]","0","2","395.59999999403954","1","[1440,900]","1","[0,1]","1","1","76.59999999403954","1","1","[""#48a782"",""#955db9""]","[""#7f5d5d"",""#5f6f81""]","148","false","[0.739,0.274,0.493,0.38]","3","0",""
"","","","","","two-step-trial","176","606625","0.0-154.0-0.0","","","","","","","","","[2,3]","0","2","325.80000001192093","0","[1440,900]","1","[0,1]","1","1","260.89999997615814","1","1","[""#48a782"",""#955db9""]","[""#7f5d5d"",""#5f6f81""]","149","false","[0.736,0.271,0.496,0.399]","3","0",""
"","","","","","two-step-trial","177","608799","0.0-155.0-0.0","","","","","","","","","[2,3]","1","3","90.40000000596046","1","[1440,900]","1","[0,1]","0","0","67.09999999403954","0","1","[""#48a782"",""#955db9""]","[""#7f5d5d"",""#5f6f81""]","150","false","[0.727,0.278,0.471,0.409]","3","0",""
"","","","","","two-step-instructions","178","611558","0.0-156.0","2757.0999999940395","","","[{""page_index"":0,""viewing_time"":2756.699999988079}]","","","","","","","","","","","","","","","","","","","","","","","","",""
"","","","","","two-step-comprehension","179","643255","0.0-157.0","31694.40000000596","","","","[""green"",""purple""]","0","","","","","","","","","","","","","","","","","","","","","","","[{""event"":""fullscreenenter"",""trial"":1,""time"":1965}]"
